PROLIFIC_ID,TrialNumber,Partner,Condition,Photos,Feedback,sharenextphoto_key.rt,choice_keys.keys,playlottery,choice_keys.rt,resumeafterlottery_keys.rt,salience_rating,stress_level
61006614d4c56450afce3a6b,1.0,Charlie,Neutral,Participant_Images/61006614d4c56450afce3a6b/61006614d4c56450afce3a6b_Images/61006614d4c56450afce3a6b_Image_27.jpeg,liked,0.8566,,,,,NAN,NAN
61006614d4c56450afce3a6b,2.0,Charlie,Neutral,Participant_Images/61006614d4c56450afce3a6b/61006614d4c56450afce3a6b_Images/61006614d4c56450afce3a6b_Image_9.jpeg,liked,0.9873,,,,,NAN,NAN
61006614d4c56450afce3a6b,3.0,Charlie,Neutral,Participant_Images/61006614d4c56450afce3a6b/61006614d4c56450afce3a6b_Images/61006614d4c56450afce3a6b_Image_16.jpeg,liked,0.7739,,,,,NAN,NAN
61006614d4c56450afce3a6b,4.0,Charlie,Neutral,Participant_Images/61006614d4c56450afce3a6b/61006614d4c56450afce3a6b_Images/61006614d4c56450afce3a6b_Image_22.jpeg,did not like,0.9577,,,,,NAN,NAN
61006614d4c56450afce3a6b,,,,,,,,999.0,,2.2202,,
61006614d4c56450afce3a6b,5.0,Charlie,Neutral,Participant_Images/61006614d4c56450afce3a6b/61006614d4c56450afce3a6b_Images/61006614d4c56450afce3a6b_Image_11.jpeg,liked,,,,,,NAN,NAN
61006614d4c56450afce3a6b,6.0,Charlie,Neutral,Participant_Images/61006614d4c56450afce3a6b/61006614d4c56450afce3a6b_Images/61006614d4c56450afce3a6b_Image_5.jpeg,did not like,0.7954,,,,,NAN,NAN
61006614d4c56450afce3a6b,7.0,Charlie,Neutral,Participant_Images/61006614d4c56450afce3a6b/61006614d4c56450afce3a6b_Images/61006614d4c56450afce3a6b_Image_18.jpeg,did not like,0.6626,,,,,NAN,NAN
61006614d4c56450afce3a6b,8.0,Charlie,Neutral,Participant_Images/61006614d4c56450afce3a6b/61006614d4c56450afce3a6b_Images/61006614d4c56450afce3a6b_Image_15.jpeg,liked,0.6461,,,,,NAN,NAN
61006614d4c56450afce3a6b,9.0,Charlie,Neutral,Participant_Images/61006614d4c56450afce3a6b/61006614d4c56450afce3a6b_Images/61006614d4c56450afce3a6b_Image_26.jpeg,liked,0.2753,,,,,NAN,NAN
61006614d4c56450afce3a6b,,,,,,,s,1.0,3.4433,1.4774,,
61006614d4c56450afce3a6b,10.0,Charlie,Neutral,Participant_Images/61006614d4c56450afce3a6b/61006614d4c56450afce3a6b_Images/61006614d4c56450afce3a6b_Image_13.jpeg,did not like,,,,,,NAN,NAN
61006614d4c56450afce3a6b,11.0,Charlie,Neutral,Participant_Images/61006614d4c56450afce3a6b/61006614d4c56450afce3a6b_Images/61006614d4c56450afce3a6b_Image_23.jpeg,did not like,0.9596,,,,,NAN,NAN
61006614d4c56450afce3a6b,12.0,Charlie,Neutral,Participant_Images/61006614d4c56450afce3a6b/61006614d4c56450afce3a6b_Images/61006614d4c56450afce3a6b_Image_19.jpeg,did not like,0.5753,,,,,NAN,NAN
61006614d4c56450afce3a6b,13.0,Charlie,Neutral,Participant_Images/61006614d4c56450afce3a6b/61006614d4c56450afce3a6b_Images/61006614d4c56450afce3a6b_Image_28.jpeg,liked,0.8974,,,,,NAN,NAN
61006614d4c56450afce3a6b,14.0,Charlie,Neutral,Participant_Images/61006614d4c56450afce3a6b/61006614d4c56450afce3a6b_Images/61006614d4c56450afce3a6b_Image_7.jpeg,liked,0.6863,,,,,NAN,NAN
61006614d4c56450afce3a6b,,,,,,,s,1.0,1.7066,0.7342,,
61006614d4c56450afce3a6b,15.0,Charlie,Neutral,Participant_Images/61006614d4c56450afce3a6b/61006614d4c56450afce3a6b_Images/61006614d4c56450afce3a6b_Image_2.jpeg,did not like,,,,,,NAN,NAN
61006614d4c56450afce3a6b,16.0,Charlie,Neutral,Participant_Images/61006614d4c56450afce3a6b/61006614d4c56450afce3a6b_Images/61006614d4c56450afce3a6b_Image_30.jpeg,did not like,1.3387,,,,,NAN,NAN
61006614d4c56450afce3a6b,17.0,Charlie,Neutral,Participant_Images/61006614d4c56450afce3a6b/61006614d4c56450afce3a6b_Images/61006614d4c56450afce3a6b_Image_3.jpeg,did not like,1.7248,,,,,NAN,NAN
61006614d4c56450afce3a6b,18.0,Charlie,Neutral,Participant_Images/61006614d4c56450afce3a6b/61006614d4c56450afce3a6b_Images/61006614d4c56450afce3a6b_Image_17.jpeg,liked,0.8074,,,,,NAN,NAN
61006614d4c56450afce3a6b,19.0,Charlie,Neutral,Participant_Images/61006614d4c56450afce3a6b/61006614d4c56450afce3a6b_Images/61006614d4c56450afce3a6b_Image_14.jpeg,liked,0.7076,,,,,NAN,NAN
61006614d4c56450afce3a6b,,,,,,,s,1.0,1.0856,0.817,,
61006614d4c56450afce3a6b,20.0,Charlie,Neutral,Participant_Images/61006614d4c56450afce3a6b/61006614d4c56450afce3a6b_Images/61006614d4c56450afce3a6b_Image_1.jpeg,did not like,,,,,,NAN,NAN
61006614d4c56450afce3a6b,21.0,Charlie,Neutral,Participant_Images/61006614d4c56450afce3a6b/61006614d4c56450afce3a6b_Images/61006614d4c56450afce3a6b_Image_6.jpeg,liked,0.8843,,,,,NAN,NAN
61006614d4c56450afce3a6b,22.0,Charlie,Neutral,Participant_Images/61006614d4c56450afce3a6b/61006614d4c56450afce3a6b_Images/61006614d4c56450afce3a6b_Image_10.jpeg,did not like,0.6438,,,,,NAN,NAN
61006614d4c56450afce3a6b,23.0,Charlie,Neutral,Participant_Images/61006614d4c56450afce3a6b/61006614d4c56450afce3a6b_Images/61006614d4c56450afce3a6b_Image_25.jpeg,liked,0.879,,,,,NAN,NAN
61006614d4c56450afce3a6b,24.0,Charlie,Neutral,Participant_Images/61006614d4c56450afce3a6b/61006614d4c56450afce3a6b_Images/61006614d4c56450afce3a6b_Image_29.jpeg,liked,3.3848,,,,,NAN,NAN
61006614d4c56450afce3a6b,,,,,,,s,1.0,1.3026,0.9826,,
61006614d4c56450afce3a6b,25.0,Charlie,Neutral,Participant_Images/61006614d4c56450afce3a6b/61006614d4c56450afce3a6b_Images/61006614d4c56450afce3a6b_Image_21.jpeg,liked,,,,,,NAN,NAN
61006614d4c56450afce3a6b,26.0,Charlie,Neutral,Participant_Images/61006614d4c56450afce3a6b/61006614d4c56450afce3a6b_Images/61006614d4c56450afce3a6b_Image_20.jpeg,did not like,5.6187,,,,,NAN,NAN
61006614d4c56450afce3a6b,27.0,Charlie,Neutral,Participant_Images/61006614d4c56450afce3a6b/61006614d4c56450afce3a6b_Images/61006614d4c56450afce3a6b_Image_12.jpeg,did not like,0.8318,,,,,NAN,NAN
61006614d4c56450afce3a6b,28.0,Charlie,Neutral,Participant_Images/61006614d4c56450afce3a6b/61006614d4c56450afce3a6b_Images/61006614d4c56450afce3a6b_Image_8.jpeg,did not like,0.999,,,,,NAN,NAN
61006614d4c56450afce3a6b,29.0,Charlie,Neutral,Participant_Images/61006614d4c56450afce3a6b/61006614d4c56450afce3a6b_Images/61006614d4c56450afce3a6b_Image_24.jpeg,did not like,0.7702,,,,,NAN,NAN
61006614d4c56450afce3a6b,,,,,,,s,1.0,1.3625,0.892,,
61006614d4c56450afce3a6b,30.0,Charlie,Neutral,Participant_Images/61006614d4c56450afce3a6b/61006614d4c56450afce3a6b_Images/61006614d4c56450afce3a6b_Image_4.jpeg,liked,,,,,,4,3
61006614d4c56450afce3a6b,31.0,Taylor,Rej,Participant_Images/61006614d4c56450afce3a6b/61006614d4c56450afce3a6b_Images/61006614d4c56450afce3a6b_Image_19.jpeg,did not like,1.2426,,,,,NAN,NAN
61006614d4c56450afce3a6b,32.0,Taylor,Rej,Participant_Images/61006614d4c56450afce3a6b/61006614d4c56450afce3a6b_Images/61006614d4c56450afce3a6b_Image_20.jpeg,did not like,5.4573,,,,,NAN,NAN
61006614d4c56450afce3a6b,33.0,Taylor,Rej,Participant_Images/61006614d4c56450afce3a6b/61006614d4c56450afce3a6b_Images/61006614d4c56450afce3a6b_Image_16.jpeg,did not like,1.3228,,,,,NAN,NAN
61006614d4c56450afce3a6b,34.0,Taylor,Rej,Participant_Images/61006614d4c56450afce3a6b/61006614d4c56450afce3a6b_Images/61006614d4c56450afce3a6b_Image_2.jpeg,did not like,2.4622,,,,,NAN,NAN
61006614d4c56450afce3a6b,,,,,,,s,1.0,1.3148,1.9769,,
61006614d4c56450afce3a6b,35.0,Taylor,Rej,Participant_Images/61006614d4c56450afce3a6b/61006614d4c56450afce3a6b_Images/61006614d4c56450afce3a6b_Image_3.jpeg,liked,,,,,,NAN,NAN
61006614d4c56450afce3a6b,36.0,Taylor,Rej,Participant_Images/61006614d4c56450afce3a6b/61006614d4c56450afce3a6b_Images/61006614d4c56450afce3a6b_Image_8.jpeg,liked,2.6722,,,,,NAN,NAN
61006614d4c56450afce3a6b,37.0,Taylor,Rej,Participant_Images/61006614d4c56450afce3a6b/61006614d4c56450afce3a6b_Images/61006614d4c56450afce3a6b_Image_18.jpeg,did not like,0.7924,,,,,NAN,NAN
61006614d4c56450afce3a6b,38.0,Taylor,Rej,Participant_Images/61006614d4c56450afce3a6b/61006614d4c56450afce3a6b_Images/61006614d4c56450afce3a6b_Image_1.jpeg,did not like,9.3,,,,,NAN,NAN
61006614d4c56450afce3a6b,39.0,Taylor,Rej,Participant_Images/61006614d4c56450afce3a6b/61006614d4c56450afce3a6b_Images/61006614d4c56450afce3a6b_Image_27.jpeg,did not like,0.8598,,,,,NAN,NAN
61006614d4c56450afce3a6b,,,,,,,s,1.0,2.8708,1.7818,,
61006614d4c56450afce3a6b,40.0,Taylor,Rej,Participant_Images/61006614d4c56450afce3a6b/61006614d4c56450afce3a6b_Images/61006614d4c56450afce3a6b_Image_11.jpeg,did not like,,,,,,NAN,NAN
61006614d4c56450afce3a6b,41.0,Taylor,Rej,Participant_Images/61006614d4c56450afce3a6b/61006614d4c56450afce3a6b_Images/61006614d4c56450afce3a6b_Image_5.jpeg,did not like,3.0948,,,,,NAN,NAN
61006614d4c56450afce3a6b,42.0,Taylor,Rej,Participant_Images/61006614d4c56450afce3a6b/61006614d4c56450afce3a6b_Images/61006614d4c56450afce3a6b_Image_15.jpeg,did not like,1.5587,,,,,NAN,NAN
61006614d4c56450afce3a6b,43.0,Taylor,Rej,Participant_Images/61006614d4c56450afce3a6b/61006614d4c56450afce3a6b_Images/61006614d4c56450afce3a6b_Image_4.jpeg,did not like,5.1668,,,,,NAN,NAN
61006614d4c56450afce3a6b,44.0,Taylor,Rej,Participant_Images/61006614d4c56450afce3a6b/61006614d4c56450afce3a6b_Images/61006614d4c56450afce3a6b_Image_7.jpeg,liked,3.9629,,,,,NAN,NAN
61006614d4c56450afce3a6b,,,,,,,s,1.0,1.6646,2.9701,,
61006614d4c56450afce3a6b,45.0,Taylor,Rej,Participant_Images/61006614d4c56450afce3a6b/61006614d4c56450afce3a6b_Images/61006614d4c56450afce3a6b_Image_25.jpeg,liked,,,,,,NAN,NAN
61006614d4c56450afce3a6b,46.0,Taylor,Rej,Participant_Images/61006614d4c56450afce3a6b/61006614d4c56450afce3a6b_Images/61006614d4c56450afce3a6b_Image_12.jpeg,liked,2.0558,,,,,NAN,NAN
61006614d4c56450afce3a6b,47.0,Taylor,Rej,Participant_Images/61006614d4c56450afce3a6b/61006614d4c56450afce3a6b_Images/61006614d4c56450afce3a6b_Image_29.jpeg,liked,2.046,,,,,NAN,NAN
61006614d4c56450afce3a6b,48.0,Taylor,Rej,Participant_Images/61006614d4c56450afce3a6b/61006614d4c56450afce3a6b_Images/61006614d4c56450afce3a6b_Image_30.jpeg,liked,0.9406,,,,,NAN,NAN
61006614d4c56450afce3a6b,49.0,Taylor,Rej,Participant_Images/61006614d4c56450afce3a6b/61006614d4c56450afce3a6b_Images/61006614d4c56450afce3a6b_Image_9.jpeg,did not like,1.7613,,,,,NAN,NAN
61006614d4c56450afce3a6b,,,,,,,s,1.0,1.3769,0.6649,,
61006614d4c56450afce3a6b,50.0,Taylor,Rej,Participant_Images/61006614d4c56450afce3a6b/61006614d4c56450afce3a6b_Images/61006614d4c56450afce3a6b_Image_24.jpeg,did not like,,,,,,NAN,NAN
61006614d4c56450afce3a6b,51.0,Taylor,Rej,Participant_Images/61006614d4c56450afce3a6b/61006614d4c56450afce3a6b_Images/61006614d4c56450afce3a6b_Image_22.jpeg,did not like,3.4907,,,,,NAN,NAN
61006614d4c56450afce3a6b,52.0,Taylor,Rej,Participant_Images/61006614d4c56450afce3a6b/61006614d4c56450afce3a6b_Images/61006614d4c56450afce3a6b_Image_14.jpeg,did not like,3.1994,,,,,NAN,NAN
61006614d4c56450afce3a6b,53.0,Taylor,Rej,Participant_Images/61006614d4c56450afce3a6b/61006614d4c56450afce3a6b_Images/61006614d4c56450afce3a6b_Image_23.jpeg,did not like,1.4229,,,,,NAN,NAN
61006614d4c56450afce3a6b,54.0,Taylor,Rej,Participant_Images/61006614d4c56450afce3a6b/61006614d4c56450afce3a6b_Images/61006614d4c56450afce3a6b_Image_6.jpeg,liked,1.7058,,,,,NAN,NAN
61006614d4c56450afce3a6b,,,,,,,s,1.0,1.0272,0.6918,,
61006614d4c56450afce3a6b,55.0,Taylor,Rej,Participant_Images/61006614d4c56450afce3a6b/61006614d4c56450afce3a6b_Images/61006614d4c56450afce3a6b_Image_10.jpeg,did not like,,,,,,NAN,NAN
61006614d4c56450afce3a6b,56.0,Taylor,Rej,Participant_Images/61006614d4c56450afce3a6b/61006614d4c56450afce3a6b_Images/61006614d4c56450afce3a6b_Image_26.jpeg,did not like,1.7185,,,,,NAN,NAN
61006614d4c56450afce3a6b,57.0,Taylor,Rej,Participant_Images/61006614d4c56450afce3a6b/61006614d4c56450afce3a6b_Images/61006614d4c56450afce3a6b_Image_13.jpeg,did not like,4.2219,,,,,NAN,NAN
61006614d4c56450afce3a6b,58.0,Taylor,Rej,Participant_Images/61006614d4c56450afce3a6b/61006614d4c56450afce3a6b_Images/61006614d4c56450afce3a6b_Image_17.jpeg,liked,4.3737,,,,,NAN,NAN
61006614d4c56450afce3a6b,59.0,Taylor,Rej,Participant_Images/61006614d4c56450afce3a6b/61006614d4c56450afce3a6b_Images/61006614d4c56450afce3a6b_Image_28.jpeg,did not like,4.5381,,,,,NAN,NAN
61006614d4c56450afce3a6b,,,,,,,s,1.0,1.1921,0.6775,,
61006614d4c56450afce3a6b,60.0,Taylor,Rej,Participant_Images/61006614d4c56450afce3a6b/61006614d4c56450afce3a6b_Images/61006614d4c56450afce3a6b_Image_21.jpeg,did not like,,,,,,4,3
61006614d4c56450afce3a6b,61.0,Riley,Acc,Participant_Images/61006614d4c56450afce3a6b/61006614d4c56450afce3a6b_Images/61006614d4c56450afce3a6b_Image_18.jpeg,liked,1.5488,,,,,NAN,NAN
61006614d4c56450afce3a6b,62.0,Riley,Acc,Participant_Images/61006614d4c56450afce3a6b/61006614d4c56450afce3a6b_Images/61006614d4c56450afce3a6b_Image_2.jpeg,liked,4.3016,,,,,NAN,NAN
61006614d4c56450afce3a6b,63.0,Riley,Acc,Participant_Images/61006614d4c56450afce3a6b/61006614d4c56450afce3a6b_Images/61006614d4c56450afce3a6b_Image_4.jpeg,liked,5.0398,,,,,NAN,NAN
61006614d4c56450afce3a6b,64.0,Riley,Acc,Participant_Images/61006614d4c56450afce3a6b/61006614d4c56450afce3a6b_Images/61006614d4c56450afce3a6b_Image_13.jpeg,did not like,6.4107,,,,,NAN,NAN
61006614d4c56450afce3a6b,,,,,,,s,1.0,1.8253,0.9708,,
61006614d4c56450afce3a6b,65.0,Riley,Acc,Participant_Images/61006614d4c56450afce3a6b/61006614d4c56450afce3a6b_Images/61006614d4c56450afce3a6b_Image_29.jpeg,liked,,,,,,NAN,NAN
61006614d4c56450afce3a6b,66.0,Riley,Acc,Participant_Images/61006614d4c56450afce3a6b/61006614d4c56450afce3a6b_Images/61006614d4c56450afce3a6b_Image_9.jpeg,liked,2.115,,,,,NAN,NAN
61006614d4c56450afce3a6b,67.0,Riley,Acc,Participant_Images/61006614d4c56450afce3a6b/61006614d4c56450afce3a6b_Images/61006614d4c56450afce3a6b_Image_15.jpeg,did not like,10.5936,,,,,NAN,NAN
61006614d4c56450afce3a6b,68.0,Riley,Acc,Participant_Images/61006614d4c56450afce3a6b/61006614d4c56450afce3a6b_Images/61006614d4c56450afce3a6b_Image_22.jpeg,liked,1.7511,,,,,NAN,NAN
61006614d4c56450afce3a6b,69.0,Riley,Acc,Participant_Images/61006614d4c56450afce3a6b/61006614d4c56450afce3a6b_Images/61006614d4c56450afce3a6b_Image_12.jpeg,liked,1.3906,,,,,NAN,NAN
61006614d4c56450afce3a6b,,,,,,,s,1.0,1.6423,0.7691,,
61006614d4c56450afce3a6b,70.0,Riley,Acc,Participant_Images/61006614d4c56450afce3a6b/61006614d4c56450afce3a6b_Images/61006614d4c56450afce3a6b_Image_17.jpeg,did not like,,,,,,NAN,NAN
61006614d4c56450afce3a6b,71.0,Riley,Acc,Participant_Images/61006614d4c56450afce3a6b/61006614d4c56450afce3a6b_Images/61006614d4c56450afce3a6b_Image_30.jpeg,liked,1.0092,,,,,NAN,NAN
61006614d4c56450afce3a6b,72.0,Riley,Acc,Participant_Images/61006614d4c56450afce3a6b/61006614d4c56450afce3a6b_Images/61006614d4c56450afce3a6b_Image_8.jpeg,liked,1.6394,,,,,NAN,NAN
61006614d4c56450afce3a6b,73.0,Riley,Acc,Participant_Images/61006614d4c56450afce3a6b/61006614d4c56450afce3a6b_Images/61006614d4c56450afce3a6b_Image_27.jpeg,did not like,1.025,,,,,NAN,NAN
61006614d4c56450afce3a6b,74.0,Riley,Acc,Participant_Images/61006614d4c56450afce3a6b/61006614d4c56450afce3a6b_Images/61006614d4c56450afce3a6b_Image_25.jpeg,liked,1.1745,,,,,NAN,NAN
61006614d4c56450afce3a6b,,,,,,,s,1.0,2.5689,0.8167,,
61006614d4c56450afce3a6b,75.0,Riley,Acc,Participant_Images/61006614d4c56450afce3a6b/61006614d4c56450afce3a6b_Images/61006614d4c56450afce3a6b_Image_6.jpeg,liked,,,,,,NAN,NAN
61006614d4c56450afce3a6b,76.0,Riley,Acc,Participant_Images/61006614d4c56450afce3a6b/61006614d4c56450afce3a6b_Images/61006614d4c56450afce3a6b_Image_26.jpeg,did not like,0.635,,,,,NAN,NAN
61006614d4c56450afce3a6b,77.0,Riley,Acc,Participant_Images/61006614d4c56450afce3a6b/61006614d4c56450afce3a6b_Images/61006614d4c56450afce3a6b_Image_23.jpeg,liked,0.7047,,,,,NAN,NAN
61006614d4c56450afce3a6b,78.0,Riley,Acc,Participant_Images/61006614d4c56450afce3a6b/61006614d4c56450afce3a6b_Images/61006614d4c56450afce3a6b_Image_20.jpeg,did not like,2.1396,,,,,NAN,NAN
61006614d4c56450afce3a6b,79.0,Riley,Acc,Participant_Images/61006614d4c56450afce3a6b/61006614d4c56450afce3a6b_Images/61006614d4c56450afce3a6b_Image_28.jpeg,liked,0.6479,,,,,NAN,NAN
61006614d4c56450afce3a6b,,,,,,,s,1.0,1.5644,1.5444,,
61006614d4c56450afce3a6b,80.0,Riley,Acc,Participant_Images/61006614d4c56450afce3a6b/61006614d4c56450afce3a6b_Images/61006614d4c56450afce3a6b_Image_21.jpeg,liked,,,,,,NAN,NAN
61006614d4c56450afce3a6b,81.0,Riley,Acc,Participant_Images/61006614d4c56450afce3a6b/61006614d4c56450afce3a6b_Images/61006614d4c56450afce3a6b_Image_7.jpeg,did not like,1.3979,,,,,NAN,NAN
61006614d4c56450afce3a6b,82.0,Riley,Acc,Participant_Images/61006614d4c56450afce3a6b/61006614d4c56450afce3a6b_Images/61006614d4c56450afce3a6b_Image_24.jpeg,liked,425.3762,,,,,NAN,NAN
61006614d4c56450afce3a6b,83.0,Riley,Acc,Participant_Images/61006614d4c56450afce3a6b/61006614d4c56450afce3a6b_Images/61006614d4c56450afce3a6b_Image_10.jpeg,liked,2.1648,,,,,NAN,NAN
61006614d4c56450afce3a6b,84.0,Riley,Acc,Participant_Images/61006614d4c56450afce3a6b/61006614d4c56450afce3a6b_Images/61006614d4c56450afce3a6b_Image_11.jpeg,did not like,44.2329,,,,,NAN,NAN
61006614d4c56450afce3a6b,,,,,,,,999.0,,10.4869,,
61006614d4c56450afce3a6b,85.0,Riley,Acc,Participant_Images/61006614d4c56450afce3a6b/61006614d4c56450afce3a6b_Images/61006614d4c56450afce3a6b_Image_1.jpeg,liked,,,,,,NAN,NAN
61006614d4c56450afce3a6b,86.0,Riley,Acc,Participant_Images/61006614d4c56450afce3a6b/61006614d4c56450afce3a6b_Images/61006614d4c56450afce3a6b_Image_19.jpeg,did not like,1.6196,,,,,NAN,NAN
61006614d4c56450afce3a6b,87.0,Riley,Acc,Participant_Images/61006614d4c56450afce3a6b/61006614d4c56450afce3a6b_Images/61006614d4c56450afce3a6b_Image_5.jpeg,liked,6.2029,,,,,NAN,NAN
61006614d4c56450afce3a6b,88.0,Riley,Acc,Participant_Images/61006614d4c56450afce3a6b/61006614d4c56450afce3a6b_Images/61006614d4c56450afce3a6b_Image_3.jpeg,liked,55.9197,,,,,NAN,NAN
61006614d4c56450afce3a6b,89.0,Riley,Acc,Participant_Images/61006614d4c56450afce3a6b/61006614d4c56450afce3a6b_Images/61006614d4c56450afce3a6b_Image_14.jpeg,liked,7.158,,,,,NAN,NAN
61006614d4c56450afce3a6b,,,,,,,c,0.0,1.158,7.9437,,
61006614d4c56450afce3a6b,90.0,Riley,Acc,Participant_Images/61006614d4c56450afce3a6b/61006614d4c56450afce3a6b_Images/61006614d4c56450afce3a6b_Image_16.jpeg,liked,,,,,,4,3
61006614d4c56450afce3a6b,91.0,Alex,Acc,Participant_Images/61006614d4c56450afce3a6b/61006614d4c56450afce3a6b_Images/61006614d4c56450afce3a6b_Image_22.jpeg,liked,1.6659,,,,,NAN,NAN
61006614d4c56450afce3a6b,92.0,Alex,Acc,Participant_Images/61006614d4c56450afce3a6b/61006614d4c56450afce3a6b_Images/61006614d4c56450afce3a6b_Image_21.jpeg,did not like,8.0452,,,,,NAN,NAN
61006614d4c56450afce3a6b,93.0,Alex,Acc,Participant_Images/61006614d4c56450afce3a6b/61006614d4c56450afce3a6b_Images/61006614d4c56450afce3a6b_Image_18.jpeg,did not like,12.3801,,,,,NAN,NAN
61006614d4c56450afce3a6b,94.0,Alex,Acc,Participant_Images/61006614d4c56450afce3a6b/61006614d4c56450afce3a6b_Images/61006614d4c56450afce3a6b_Image_23.jpeg,liked,11.5586,,,,,NAN,NAN
61006614d4c56450afce3a6b,,,,,,,,999.0,,4.2984,,
61006614d4c56450afce3a6b,95.0,Alex,Acc,Participant_Images/61006614d4c56450afce3a6b/61006614d4c56450afce3a6b_Images/61006614d4c56450afce3a6b_Image_4.jpeg,liked,,,,,,NAN,NAN
61006614d4c56450afce3a6b,96.0,Alex,Acc,Participant_Images/61006614d4c56450afce3a6b/61006614d4c56450afce3a6b_Images/61006614d4c56450afce3a6b_Image_2.jpeg,liked,8.3663,,,,,NAN,NAN
61006614d4c56450afce3a6b,97.0,Alex,Acc,Participant_Images/61006614d4c56450afce3a6b/61006614d4c56450afce3a6b_Images/61006614d4c56450afce3a6b_Image_12.jpeg,did not like,51.0938,,,,,NAN,NAN
61006614d4c56450afce3a6b,98.0,Alex,Acc,Participant_Images/61006614d4c56450afce3a6b/61006614d4c56450afce3a6b_Images/61006614d4c56450afce3a6b_Image_1.jpeg,liked,150.1672,,,,,NAN,NAN
61006614d4c56450afce3a6b,99.0,Alex,Acc,Participant_Images/61006614d4c56450afce3a6b/61006614d4c56450afce3a6b_Images/61006614d4c56450afce3a6b_Image_5.jpeg,liked,10.3955,,,,,NAN,NAN
61006614d4c56450afce3a6b,,,,,,,,999.0,,231.343,,
61006614d4c56450afce3a6b,100.0,Alex,Acc,Participant_Images/61006614d4c56450afce3a6b/61006614d4c56450afce3a6b_Images/61006614d4c56450afce3a6b_Image_19.jpeg,liked,,,,,,NAN,NAN
61006614d4c56450afce3a6b,101.0,Alex,Acc,Participant_Images/61006614d4c56450afce3a6b/61006614d4c56450afce3a6b_Images/61006614d4c56450afce3a6b_Image_29.jpeg,liked,21.7056,,,,,NAN,NAN
61006614d4c56450afce3a6b,102.0,Alex,Acc,Participant_Images/61006614d4c56450afce3a6b/61006614d4c56450afce3a6b_Images/61006614d4c56450afce3a6b_Image_10.jpeg,liked,5.7418,,,,,NAN,NAN
61006614d4c56450afce3a6b,103.0,Alex,Acc,Participant_Images/61006614d4c56450afce3a6b/61006614d4c56450afce3a6b_Images/61006614d4c56450afce3a6b_Image_8.jpeg,liked,2.5078,,,,,NAN,NAN
61006614d4c56450afce3a6b,104.0,Alex,Acc,Participant_Images/61006614d4c56450afce3a6b/61006614d4c56450afce3a6b_Images/61006614d4c56450afce3a6b_Image_24.jpeg,did not like,11.9914,,,,,NAN,NAN
61006614d4c56450afce3a6b,,,,,,,c,0.0,2.4142,2.9129,,
61006614d4c56450afce3a6b,105.0,Alex,Acc,Participant_Images/61006614d4c56450afce3a6b/61006614d4c56450afce3a6b_Images/61006614d4c56450afce3a6b_Image_20.jpeg,liked,,,,,,NAN,NAN
61006614d4c56450afce3a6b,106.0,Alex,Acc,Participant_Images/61006614d4c56450afce3a6b/61006614d4c56450afce3a6b_Images/61006614d4c56450afce3a6b_Image_28.jpeg,did not like,8.5068,,,,,NAN,NAN
61006614d4c56450afce3a6b,107.0,Alex,Acc,Participant_Images/61006614d4c56450afce3a6b/61006614d4c56450afce3a6b_Images/61006614d4c56450afce3a6b_Image_26.jpeg,liked,1.4532,,,,,NAN,NAN
61006614d4c56450afce3a6b,108.0,Alex,Acc,Participant_Images/61006614d4c56450afce3a6b/61006614d4c56450afce3a6b_Images/61006614d4c56450afce3a6b_Image_16.jpeg,liked,3.6172,,,,,NAN,NAN
61006614d4c56450afce3a6b,109.0,Alex,Acc,Participant_Images/61006614d4c56450afce3a6b/61006614d4c56450afce3a6b_Images/61006614d4c56450afce3a6b_Image_27.jpeg,did not like,475.526,,,,,NAN,NAN
61006614d4c56450afce3a6b,,,,,,,c,0.0,2.5043,1.0964,,
61006614d4c56450afce3a6b,110.0,Alex,Acc,Participant_Images/61006614d4c56450afce3a6b/61006614d4c56450afce3a6b_Images/61006614d4c56450afce3a6b_Image_15.jpeg,liked,,,,,,NAN,NAN
61006614d4c56450afce3a6b,111.0,Alex,Acc,Participant_Images/61006614d4c56450afce3a6b/61006614d4c56450afce3a6b_Images/61006614d4c56450afce3a6b_Image_30.jpeg,did not like,1.6925,,,,,NAN,NAN
61006614d4c56450afce3a6b,112.0,Alex,Acc,Participant_Images/61006614d4c56450afce3a6b/61006614d4c56450afce3a6b_Images/61006614d4c56450afce3a6b_Image_3.jpeg,liked,1.0369,,,,,NAN,NAN
61006614d4c56450afce3a6b,113.0,Alex,Acc,Participant_Images/61006614d4c56450afce3a6b/61006614d4c56450afce3a6b_Images/61006614d4c56450afce3a6b_Image_11.jpeg,did not like,10.9337,,,,,NAN,NAN
61006614d4c56450afce3a6b,114.0,Alex,Acc,Participant_Images/61006614d4c56450afce3a6b/61006614d4c56450afce3a6b_Images/61006614d4c56450afce3a6b_Image_9.jpeg,liked,6.9032,,,,,NAN,NAN
61006614d4c56450afce3a6b,,,,,,,s,1.0,1.374,1.1612,,
61006614d4c56450afce3a6b,115.0,Alex,Acc,Participant_Images/61006614d4c56450afce3a6b/61006614d4c56450afce3a6b_Images/61006614d4c56450afce3a6b_Image_25.jpeg,liked,,,,,,NAN,NAN
61006614d4c56450afce3a6b,116.0,Alex,Acc,Participant_Images/61006614d4c56450afce3a6b/61006614d4c56450afce3a6b_Images/61006614d4c56450afce3a6b_Image_6.jpeg,liked,1.9157,,,,,NAN,NAN
61006614d4c56450afce3a6b,117.0,Alex,Acc,Participant_Images/61006614d4c56450afce3a6b/61006614d4c56450afce3a6b_Images/61006614d4c56450afce3a6b_Image_13.jpeg,liked,3.1592,,,,,NAN,NAN
61006614d4c56450afce3a6b,118.0,Alex,Acc,Participant_Images/61006614d4c56450afce3a6b/61006614d4c56450afce3a6b_Images/61006614d4c56450afce3a6b_Image_7.jpeg,did not like,1.437,,,,,NAN,NAN
61006614d4c56450afce3a6b,119.0,Alex,Acc,Participant_Images/61006614d4c56450afce3a6b/61006614d4c56450afce3a6b_Images/61006614d4c56450afce3a6b_Image_14.jpeg,liked,3.0843,,,,,NAN,NAN
61006614d4c56450afce3a6b,,,,,,,s,1.0,1.5926,2.4512,,
61006614d4c56450afce3a6b,120.0,Alex,Acc,Participant_Images/61006614d4c56450afce3a6b/61006614d4c56450afce3a6b_Images/61006614d4c56450afce3a6b_Image_17.jpeg,liked,,,,,,3,3
61006614d4c56450afce3a6b,121.0,Sam,Rej,Participant_Images/61006614d4c56450afce3a6b/61006614d4c56450afce3a6b_Images/61006614d4c56450afce3a6b_Image_24.jpeg,did not like,1.3857,,,,,NAN,NAN
61006614d4c56450afce3a6b,122.0,Sam,Rej,Participant_Images/61006614d4c56450afce3a6b/61006614d4c56450afce3a6b_Images/61006614d4c56450afce3a6b_Image_8.jpeg,did not like,1.0878,,,,,NAN,NAN
61006614d4c56450afce3a6b,123.0,Sam,Rej,Participant_Images/61006614d4c56450afce3a6b/61006614d4c56450afce3a6b_Images/61006614d4c56450afce3a6b_Image_27.jpeg,did not like,2.6436,,,,,NAN,NAN
61006614d4c56450afce3a6b,124.0,Sam,Rej,Participant_Images/61006614d4c56450afce3a6b/61006614d4c56450afce3a6b_Images/61006614d4c56450afce3a6b_Image_11.jpeg,did not like,2.1086,,,,,NAN,NAN
61006614d4c56450afce3a6b,,,,,,,s,1.0,3.1215,1.5775,,
61006614d4c56450afce3a6b,125.0,Sam,Rej,Participant_Images/61006614d4c56450afce3a6b/61006614d4c56450afce3a6b_Images/61006614d4c56450afce3a6b_Image_16.jpeg,liked,,,,,,NAN,NAN
61006614d4c56450afce3a6b,126.0,Sam,Rej,Participant_Images/61006614d4c56450afce3a6b/61006614d4c56450afce3a6b_Images/61006614d4c56450afce3a6b_Image_18.jpeg,did not like,0.8276,,,,,NAN,NAN
61006614d4c56450afce3a6b,127.0,Sam,Rej,Participant_Images/61006614d4c56450afce3a6b/61006614d4c56450afce3a6b_Images/61006614d4c56450afce3a6b_Image_25.jpeg,liked,3.5896,,,,,NAN,NAN
61006614d4c56450afce3a6b,128.0,Sam,Rej,Participant_Images/61006614d4c56450afce3a6b/61006614d4c56450afce3a6b_Images/61006614d4c56450afce3a6b_Image_9.jpeg,did not like,3.3019,,,,,NAN,NAN
61006614d4c56450afce3a6b,129.0,Sam,Rej,Participant_Images/61006614d4c56450afce3a6b/61006614d4c56450afce3a6b_Images/61006614d4c56450afce3a6b_Image_22.jpeg,liked,2.1437,,,,,NAN,NAN
61006614d4c56450afce3a6b,,,,,,,s,1.0,1.1517,1.3094,,
61006614d4c56450afce3a6b,130.0,Sam,Rej,Participant_Images/61006614d4c56450afce3a6b/61006614d4c56450afce3a6b_Images/61006614d4c56450afce3a6b_Image_30.jpeg,liked,,,,,,NAN,NAN
61006614d4c56450afce3a6b,131.0,Sam,Rej,Participant_Images/61006614d4c56450afce3a6b/61006614d4c56450afce3a6b_Images/61006614d4c56450afce3a6b_Image_12.jpeg,did not like,0.6654,,,,,NAN,NAN
61006614d4c56450afce3a6b,132.0,Sam,Rej,Participant_Images/61006614d4c56450afce3a6b/61006614d4c56450afce3a6b_Images/61006614d4c56450afce3a6b_Image_3.jpeg,did not like,3.1204,,,,,NAN,NAN
61006614d4c56450afce3a6b,133.0,Sam,Rej,Participant_Images/61006614d4c56450afce3a6b/61006614d4c56450afce3a6b_Images/61006614d4c56450afce3a6b_Image_2.jpeg,liked,2.1147,,,,,NAN,NAN
61006614d4c56450afce3a6b,134.0,Sam,Rej,Participant_Images/61006614d4c56450afce3a6b/61006614d4c56450afce3a6b_Images/61006614d4c56450afce3a6b_Image_5.jpeg,did not like,10.8157,,,,,NAN,NAN
61006614d4c56450afce3a6b,,,,,,,s,1.0,1.2869,7.6439,,
61006614d4c56450afce3a6b,135.0,Sam,Rej,Participant_Images/61006614d4c56450afce3a6b/61006614d4c56450afce3a6b_Images/61006614d4c56450afce3a6b_Image_7.jpeg,liked,,,,,,NAN,NAN
61006614d4c56450afce3a6b,136.0,Sam,Rej,Participant_Images/61006614d4c56450afce3a6b/61006614d4c56450afce3a6b_Images/61006614d4c56450afce3a6b_Image_10.jpeg,did not like,3.47,,,,,NAN,NAN
61006614d4c56450afce3a6b,137.0,Sam,Rej,Participant_Images/61006614d4c56450afce3a6b/61006614d4c56450afce3a6b_Images/61006614d4c56450afce3a6b_Image_29.jpeg,did not like,3.1157,,,,,NAN,NAN
61006614d4c56450afce3a6b,138.0,Sam,Rej,Participant_Images/61006614d4c56450afce3a6b/61006614d4c56450afce3a6b_Images/61006614d4c56450afce3a6b_Image_20.jpeg,did not like,7.9024,,,,,NAN,NAN
61006614d4c56450afce3a6b,139.0,Sam,Rej,Participant_Images/61006614d4c56450afce3a6b/61006614d4c56450afce3a6b_Images/61006614d4c56450afce3a6b_Image_4.jpeg,did not like,1.6347,,,,,NAN,NAN
61006614d4c56450afce3a6b,,,,,,,s,1.0,0.9501,2.5746,,
61006614d4c56450afce3a6b,140.0,Sam,Rej,Participant_Images/61006614d4c56450afce3a6b/61006614d4c56450afce3a6b_Images/61006614d4c56450afce3a6b_Image_19.jpeg,did not like,,,,,,NAN,NAN
61006614d4c56450afce3a6b,141.0,Sam,Rej,Participant_Images/61006614d4c56450afce3a6b/61006614d4c56450afce3a6b_Images/61006614d4c56450afce3a6b_Image_26.jpeg,did not like,3.2312,,,,,NAN,NAN
61006614d4c56450afce3a6b,142.0,Sam,Rej,Participant_Images/61006614d4c56450afce3a6b/61006614d4c56450afce3a6b_Images/61006614d4c56450afce3a6b_Image_6.jpeg,liked,0.8589,,,,,NAN,NAN
61006614d4c56450afce3a6b,143.0,Sam,Rej,Participant_Images/61006614d4c56450afce3a6b/61006614d4c56450afce3a6b_Images/61006614d4c56450afce3a6b_Image_17.jpeg,did not like,0.9621,,,,,NAN,NAN
61006614d4c56450afce3a6b,144.0,Sam,Rej,Participant_Images/61006614d4c56450afce3a6b/61006614d4c56450afce3a6b_Images/61006614d4c56450afce3a6b_Image_15.jpeg,did not like,1.5171,,,,,NAN,NAN
61006614d4c56450afce3a6b,,,,,,,s,1.0,1.6442,1.3958,,
61006614d4c56450afce3a6b,145.0,Sam,Rej,Participant_Images/61006614d4c56450afce3a6b/61006614d4c56450afce3a6b_Images/61006614d4c56450afce3a6b_Image_13.jpeg,did not like,,,,,,NAN,NAN
61006614d4c56450afce3a6b,146.0,Sam,Rej,Participant_Images/61006614d4c56450afce3a6b/61006614d4c56450afce3a6b_Images/61006614d4c56450afce3a6b_Image_1.jpeg,did not like,1.1996,,,,,NAN,NAN
61006614d4c56450afce3a6b,147.0,Sam,Rej,Participant_Images/61006614d4c56450afce3a6b/61006614d4c56450afce3a6b_Images/61006614d4c56450afce3a6b_Image_21.jpeg,did not like,1.8738,,,,,NAN,NAN
61006614d4c56450afce3a6b,148.0,Sam,Rej,Participant_Images/61006614d4c56450afce3a6b/61006614d4c56450afce3a6b_Images/61006614d4c56450afce3a6b_Image_28.jpeg,did not like,0.9363,,,,,NAN,NAN
61006614d4c56450afce3a6b,149.0,Sam,Rej,Participant_Images/61006614d4c56450afce3a6b/61006614d4c56450afce3a6b_Images/61006614d4c56450afce3a6b_Image_23.jpeg,liked,5.2354,,,,,NAN,NAN
61006614d4c56450afce3a6b,,,,,,,s,1.0,2.4252,1.8295,,
61006614d4c56450afce3a6b,150.0,Sam,Rej,Participant_Images/61006614d4c56450afce3a6b/61006614d4c56450afce3a6b_Images/61006614d4c56450afce3a6b_Image_14.jpeg,liked,,,,,,4,3
61006614d4c56450afce3a6b,,,,,,,,,,,,
5eefc651cb94ad4c4d017b86,1.0,Taylor,Acc,Participant_Images/5eefc651cb94ad4c4d017b86/5eefc651cb94ad4c4d017b86_Images/5eefc651cb94ad4c4d017b86_Image_23.jpeg,did not like,1.166,,,,,NAN,NAN
5eefc651cb94ad4c4d017b86,2.0,Taylor,Acc,Participant_Images/5eefc651cb94ad4c4d017b86/5eefc651cb94ad4c4d017b86_Images/5eefc651cb94ad4c4d017b86_Image_15.jpeg,did not like,0.7,,,,,NAN,NAN
5eefc651cb94ad4c4d017b86,3.0,Taylor,Acc,Participant_Images/5eefc651cb94ad4c4d017b86/5eefc651cb94ad4c4d017b86_Images/5eefc651cb94ad4c4d017b86_Image_16.jpeg,did not like,0.983,,,,,NAN,NAN
5eefc651cb94ad4c4d017b86,4.0,Taylor,Acc,Participant_Images/5eefc651cb94ad4c4d017b86/5eefc651cb94ad4c4d017b86_Images/5eefc651cb94ad4c4d017b86_Image_4.jpeg,liked,0.654,,,,,NAN,NAN
5eefc651cb94ad4c4d017b86,,,,,,,,999.0,,2.319,,
5eefc651cb94ad4c4d017b86,5.0,Taylor,Acc,Participant_Images/5eefc651cb94ad4c4d017b86/5eefc651cb94ad4c4d017b86_Images/5eefc651cb94ad4c4d017b86_Image_21.jpeg,did not like,,,,,,NAN,NAN
5eefc651cb94ad4c4d017b86,6.0,Taylor,Acc,Participant_Images/5eefc651cb94ad4c4d017b86/5eefc651cb94ad4c4d017b86_Images/5eefc651cb94ad4c4d017b86_Image_30.jpeg,liked,0.549,,,,,NAN,NAN
5eefc651cb94ad4c4d017b86,7.0,Taylor,Acc,Participant_Images/5eefc651cb94ad4c4d017b86/5eefc651cb94ad4c4d017b86_Images/5eefc651cb94ad4c4d017b86_Image_1.jpeg,liked,0.667,,,,,NAN,NAN
5eefc651cb94ad4c4d017b86,8.0,Taylor,Acc,Participant_Images/5eefc651cb94ad4c4d017b86/5eefc651cb94ad4c4d017b86_Images/5eefc651cb94ad4c4d017b86_Image_19.jpeg,liked,0.687,,,,,NAN,NAN
5eefc651cb94ad4c4d017b86,9.0,Taylor,Acc,Participant_Images/5eefc651cb94ad4c4d017b86/5eefc651cb94ad4c4d017b86_Images/5eefc651cb94ad4c4d017b86_Image_26.jpeg,liked,0.633,,,,,NAN,NAN
5eefc651cb94ad4c4d017b86,,,,,,,c,0.0,3.232,0.76,,
5eefc651cb94ad4c4d017b86,10.0,Taylor,Acc,Participant_Images/5eefc651cb94ad4c4d017b86/5eefc651cb94ad4c4d017b86_Images/5eefc651cb94ad4c4d017b86_Image_14.jpeg,liked,,,,,,NAN,NAN
5eefc651cb94ad4c4d017b86,11.0,Taylor,Acc,Participant_Images/5eefc651cb94ad4c4d017b86/5eefc651cb94ad4c4d017b86_Images/5eefc651cb94ad4c4d017b86_Image_24.jpeg,liked,0.484,,,,,NAN,NAN
5eefc651cb94ad4c4d017b86,12.0,Taylor,Acc,Participant_Images/5eefc651cb94ad4c4d017b86/5eefc651cb94ad4c4d017b86_Images/5eefc651cb94ad4c4d017b86_Image_20.jpeg,liked,0.383,,,,,NAN,NAN
5eefc651cb94ad4c4d017b86,13.0,Taylor,Acc,Participant_Images/5eefc651cb94ad4c4d017b86/5eefc651cb94ad4c4d017b86_Images/5eefc651cb94ad4c4d017b86_Image_6.jpeg,liked,0.57,,,,,NAN,NAN
5eefc651cb94ad4c4d017b86,14.0,Taylor,Acc,Participant_Images/5eefc651cb94ad4c4d017b86/5eefc651cb94ad4c4d017b86_Images/5eefc651cb94ad4c4d017b86_Image_12.jpeg,liked,0.535,,,,,NAN,NAN
5eefc651cb94ad4c4d017b86,,,,,,,s,1.0,2.863,0.8,,
5eefc651cb94ad4c4d017b86,15.0,Taylor,Acc,Participant_Images/5eefc651cb94ad4c4d017b86/5eefc651cb94ad4c4d017b86_Images/5eefc651cb94ad4c4d017b86_Image_10.jpeg,did not like,,,,,,NAN,NAN
5eefc651cb94ad4c4d017b86,16.0,Taylor,Acc,Participant_Images/5eefc651cb94ad4c4d017b86/5eefc651cb94ad4c4d017b86_Images/5eefc651cb94ad4c4d017b86_Image_17.jpeg,liked,0.55,,,,,NAN,NAN
5eefc651cb94ad4c4d017b86,17.0,Taylor,Acc,Participant_Images/5eefc651cb94ad4c4d017b86/5eefc651cb94ad4c4d017b86_Images/5eefc651cb94ad4c4d017b86_Image_2.jpeg,did not like,0.523,,,,,NAN,NAN
5eefc651cb94ad4c4d017b86,18.0,Taylor,Acc,Participant_Images/5eefc651cb94ad4c4d017b86/5eefc651cb94ad4c4d017b86_Images/5eefc651cb94ad4c4d017b86_Image_27.jpeg,liked,0.917,,,,,NAN,NAN
5eefc651cb94ad4c4d017b86,19.0,Taylor,Acc,Participant_Images/5eefc651cb94ad4c4d017b86/5eefc651cb94ad4c4d017b86_Images/5eefc651cb94ad4c4d017b86_Image_7.jpeg,liked,0.569,,,,,NAN,NAN
5eefc651cb94ad4c4d017b86,,,,,,,s,1.0,1.541,0.771,,
5eefc651cb94ad4c4d017b86,20.0,Taylor,Acc,Participant_Images/5eefc651cb94ad4c4d017b86/5eefc651cb94ad4c4d017b86_Images/5eefc651cb94ad4c4d017b86_Image_5.jpeg,liked,,,,,,NAN,NAN
5eefc651cb94ad4c4d017b86,21.0,Taylor,Acc,Participant_Images/5eefc651cb94ad4c4d017b86/5eefc651cb94ad4c4d017b86_Images/5eefc651cb94ad4c4d017b86_Image_22.jpeg,liked,0.367,,,,,NAN,NAN
5eefc651cb94ad4c4d017b86,22.0,Taylor,Acc,Participant_Images/5eefc651cb94ad4c4d017b86/5eefc651cb94ad4c4d017b86_Images/5eefc651cb94ad4c4d017b86_Image_29.jpeg,did not like,0.734,,,,,NAN,NAN
5eefc651cb94ad4c4d017b86,23.0,Taylor,Acc,Participant_Images/5eefc651cb94ad4c4d017b86/5eefc651cb94ad4c4d017b86_Images/5eefc651cb94ad4c4d017b86_Image_11.jpeg,liked,0.704,,,,,NAN,NAN
5eefc651cb94ad4c4d017b86,24.0,Taylor,Acc,Participant_Images/5eefc651cb94ad4c4d017b86/5eefc651cb94ad4c4d017b86_Images/5eefc651cb94ad4c4d017b86_Image_9.jpeg,liked,0.537,,,,,NAN,NAN
5eefc651cb94ad4c4d017b86,,,,,,,s,1.0,2.089,0.654,,
5eefc651cb94ad4c4d017b86,25.0,Taylor,Acc,Participant_Images/5eefc651cb94ad4c4d017b86/5eefc651cb94ad4c4d017b86_Images/5eefc651cb94ad4c4d017b86_Image_8.jpeg,liked,,,,,,NAN,NAN
5eefc651cb94ad4c4d017b86,26.0,Taylor,Acc,Participant_Images/5eefc651cb94ad4c4d017b86/5eefc651cb94ad4c4d017b86_Images/5eefc651cb94ad4c4d017b86_Image_3.jpeg,did not like,0.787,,,,,NAN,NAN
5eefc651cb94ad4c4d017b86,27.0,Taylor,Acc,Participant_Images/5eefc651cb94ad4c4d017b86/5eefc651cb94ad4c4d017b86_Images/5eefc651cb94ad4c4d017b86_Image_13.jpeg,liked,0.585,,,,,NAN,NAN
5eefc651cb94ad4c4d017b86,28.0,Taylor,Acc,Participant_Images/5eefc651cb94ad4c4d017b86/5eefc651cb94ad4c4d017b86_Images/5eefc651cb94ad4c4d017b86_Image_18.jpeg,liked,0.603,,,,,NAN,NAN
5eefc651cb94ad4c4d017b86,29.0,Taylor,Acc,Participant_Images/5eefc651cb94ad4c4d017b86/5eefc651cb94ad4c4d017b86_Images/5eefc651cb94ad4c4d017b86_Image_28.jpeg,did not like,0.666,,,,,NAN,NAN
5eefc651cb94ad4c4d017b86,,,,,,,c,0.0,1.977,0.955,,
5eefc651cb94ad4c4d017b86,30.0,Taylor,Acc,Participant_Images/5eefc651cb94ad4c4d017b86/5eefc651cb94ad4c4d017b86_Images/5eefc651cb94ad4c4d017b86_Image_25.jpeg,liked,,,,,,3,3
5eefc651cb94ad4c4d017b86,31.0,Riley,Acc,Participant_Images/5eefc651cb94ad4c4d017b86/5eefc651cb94ad4c4d017b86_Images/5eefc651cb94ad4c4d017b86_Image_6.jpeg,liked,0.707,,,,,NAN,NAN
5eefc651cb94ad4c4d017b86,32.0,Riley,Acc,Participant_Images/5eefc651cb94ad4c4d017b86/5eefc651cb94ad4c4d017b86_Images/5eefc651cb94ad4c4d017b86_Image_7.jpeg,did not like,0.607,,,,,NAN,NAN
5eefc651cb94ad4c4d017b86,33.0,Riley,Acc,Participant_Images/5eefc651cb94ad4c4d017b86/5eefc651cb94ad4c4d017b86_Images/5eefc651cb94ad4c4d017b86_Image_20.jpeg,liked,3.12,,,,,NAN,NAN
5eefc651cb94ad4c4d017b86,34.0,Riley,Acc,Participant_Images/5eefc651cb94ad4c4d017b86/5eefc651cb94ad4c4d017b86_Images/5eefc651cb94ad4c4d017b86_Image_5.jpeg,liked,0.584,,,,,NAN,NAN
5eefc651cb94ad4c4d017b86,,,,,,,s,1.0,3.612,3.724,,
5eefc651cb94ad4c4d017b86,35.0,Riley,Acc,Participant_Images/5eefc651cb94ad4c4d017b86/5eefc651cb94ad4c4d017b86_Images/5eefc651cb94ad4c4d017b86_Image_8.jpeg,liked,,,,,,NAN,NAN
5eefc651cb94ad4c4d017b86,36.0,Riley,Acc,Participant_Images/5eefc651cb94ad4c4d017b86/5eefc651cb94ad4c4d017b86_Images/5eefc651cb94ad4c4d017b86_Image_19.jpeg,did not like,0.801,,,,,NAN,NAN
5eefc651cb94ad4c4d017b86,37.0,Riley,Acc,Participant_Images/5eefc651cb94ad4c4d017b86/5eefc651cb94ad4c4d017b86_Images/5eefc651cb94ad4c4d017b86_Image_14.jpeg,liked,1.101,,,,,NAN,NAN
5eefc651cb94ad4c4d017b86,38.0,Riley,Acc,Participant_Images/5eefc651cb94ad4c4d017b86/5eefc651cb94ad4c4d017b86_Images/5eefc651cb94ad4c4d017b86_Image_16.jpeg,liked,0.604,,,,,NAN,NAN
5eefc651cb94ad4c4d017b86,39.0,Riley,Acc,Participant_Images/5eefc651cb94ad4c4d017b86/5eefc651cb94ad4c4d017b86_Images/5eefc651cb94ad4c4d017b86_Image_22.jpeg,liked,0.801,,,,,NAN,NAN
5eefc651cb94ad4c4d017b86,,,,,,,s,1.0,1.68,0.921,,
5eefc651cb94ad4c4d017b86,40.0,Riley,Acc,Participant_Images/5eefc651cb94ad4c4d017b86/5eefc651cb94ad4c4d017b86_Images/5eefc651cb94ad4c4d017b86_Image_21.jpeg,did not like,,,,,,NAN,NAN
5eefc651cb94ad4c4d017b86,41.0,Riley,Acc,Participant_Images/5eefc651cb94ad4c4d017b86/5eefc651cb94ad4c4d017b86_Images/5eefc651cb94ad4c4d017b86_Image_18.jpeg,did not like,0.538,,,,,NAN,NAN
5eefc651cb94ad4c4d017b86,42.0,Riley,Acc,Participant_Images/5eefc651cb94ad4c4d017b86/5eefc651cb94ad4c4d017b86_Images/5eefc651cb94ad4c4d017b86_Image_10.jpeg,did not like,0.767,,,,,NAN,NAN
5eefc651cb94ad4c4d017b86,43.0,Riley,Acc,Participant_Images/5eefc651cb94ad4c4d017b86/5eefc651cb94ad4c4d017b86_Images/5eefc651cb94ad4c4d017b86_Image_26.jpeg,did not like,0.734,,,,,NAN,NAN
5eefc651cb94ad4c4d017b86,44.0,Riley,Acc,Participant_Images/5eefc651cb94ad4c4d017b86/5eefc651cb94ad4c4d017b86_Images/5eefc651cb94ad4c4d017b86_Image_30.jpeg,liked,0.783,,,,,NAN,NAN
5eefc651cb94ad4c4d017b86,,,,,,,c,0.0,1.712,0.618,,
5eefc651cb94ad4c4d017b86,45.0,Riley,Acc,Participant_Images/5eefc651cb94ad4c4d017b86/5eefc651cb94ad4c4d017b86_Images/5eefc651cb94ad4c4d017b86_Image_11.jpeg,liked,,,,,,NAN,NAN
5eefc651cb94ad4c4d017b86,46.0,Riley,Acc,Participant_Images/5eefc651cb94ad4c4d017b86/5eefc651cb94ad4c4d017b86_Images/5eefc651cb94ad4c4d017b86_Image_1.jpeg,liked,0.553,,,,,NAN,NAN
5eefc651cb94ad4c4d017b86,47.0,Riley,Acc,Participant_Images/5eefc651cb94ad4c4d017b86/5eefc651cb94ad4c4d017b86_Images/5eefc651cb94ad4c4d017b86_Image_28.jpeg,did not like,0.738,,,,,NAN,NAN
5eefc651cb94ad4c4d017b86,48.0,Riley,Acc,Participant_Images/5eefc651cb94ad4c4d017b86/5eefc651cb94ad4c4d017b86_Images/5eefc651cb94ad4c4d017b86_Image_9.jpeg,liked,0.534,,,,,NAN,NAN
5eefc651cb94ad4c4d017b86,49.0,Riley,Acc,Participant_Images/5eefc651cb94ad4c4d017b86/5eefc651cb94ad4c4d017b86_Images/5eefc651cb94ad4c4d017b86_Image_27.jpeg,liked,0.534,,,,,NAN,NAN
5eefc651cb94ad4c4d017b86,,,,,,,s,1.0,1.157,0.568,,
5eefc651cb94ad4c4d017b86,50.0,Riley,Acc,Participant_Images/5eefc651cb94ad4c4d017b86/5eefc651cb94ad4c4d017b86_Images/5eefc651cb94ad4c4d017b86_Image_25.jpeg,liked,,,,,,NAN,NAN
5eefc651cb94ad4c4d017b86,51.0,Riley,Acc,Participant_Images/5eefc651cb94ad4c4d017b86/5eefc651cb94ad4c4d017b86_Images/5eefc651cb94ad4c4d017b86_Image_3.jpeg,liked,0.786,,,,,NAN,NAN
5eefc651cb94ad4c4d017b86,52.0,Riley,Acc,Participant_Images/5eefc651cb94ad4c4d017b86/5eefc651cb94ad4c4d017b86_Images/5eefc651cb94ad4c4d017b86_Image_13.jpeg,liked,0.916,,,,,NAN,NAN
5eefc651cb94ad4c4d017b86,53.0,Riley,Acc,Participant_Images/5eefc651cb94ad4c4d017b86/5eefc651cb94ad4c4d017b86_Images/5eefc651cb94ad4c4d017b86_Image_2.jpeg,liked,0.702,,,,,NAN,NAN
5eefc651cb94ad4c4d017b86,54.0,Riley,Acc,Participant_Images/5eefc651cb94ad4c4d017b86/5eefc651cb94ad4c4d017b86_Images/5eefc651cb94ad4c4d017b86_Image_24.jpeg,liked,0.687,,,,,NAN,NAN
5eefc651cb94ad4c4d017b86,,,,,,,s,1.0,2.025,0.502,,
5eefc651cb94ad4c4d017b86,55.0,Riley,Acc,Participant_Images/5eefc651cb94ad4c4d017b86/5eefc651cb94ad4c4d017b86_Images/5eefc651cb94ad4c4d017b86_Image_15.jpeg,did not like,,,,,,NAN,NAN
5eefc651cb94ad4c4d017b86,56.0,Riley,Acc,Participant_Images/5eefc651cb94ad4c4d017b86/5eefc651cb94ad4c4d017b86_Images/5eefc651cb94ad4c4d017b86_Image_12.jpeg,liked,0.653,,,,,NAN,NAN
5eefc651cb94ad4c4d017b86,57.0,Riley,Acc,Participant_Images/5eefc651cb94ad4c4d017b86/5eefc651cb94ad4c4d017b86_Images/5eefc651cb94ad4c4d017b86_Image_23.jpeg,did not like,0.716,,,,,NAN,NAN
5eefc651cb94ad4c4d017b86,58.0,Riley,Acc,Participant_Images/5eefc651cb94ad4c4d017b86/5eefc651cb94ad4c4d017b86_Images/5eefc651cb94ad4c4d017b86_Image_29.jpeg,liked,0.75,,,,,NAN,NAN
5eefc651cb94ad4c4d017b86,59.0,Riley,Acc,Participant_Images/5eefc651cb94ad4c4d017b86/5eefc651cb94ad4c4d017b86_Images/5eefc651cb94ad4c4d017b86_Image_17.jpeg,liked,0.534,,,,,NAN,NAN
5eefc651cb94ad4c4d017b86,,,,,,,s,1.0,1.99,0.751,,
5eefc651cb94ad4c4d017b86,60.0,Riley,Acc,Participant_Images/5eefc651cb94ad4c4d017b86/5eefc651cb94ad4c4d017b86_Images/5eefc651cb94ad4c4d017b86_Image_4.jpeg,liked,,,,,,4,3
5eefc651cb94ad4c4d017b86,61.0,Sam,Neutral,Participant_Images/5eefc651cb94ad4c4d017b86/5eefc651cb94ad4c4d017b86_Images/5eefc651cb94ad4c4d017b86_Image_3.jpeg,did not like,0.604,,,,,NAN,NAN
5eefc651cb94ad4c4d017b86,62.0,Sam,Neutral,Participant_Images/5eefc651cb94ad4c4d017b86/5eefc651cb94ad4c4d017b86_Images/5eefc651cb94ad4c4d017b86_Image_9.jpeg,did not like,0.754,,,,,NAN,NAN
5eefc651cb94ad4c4d017b86,63.0,Sam,Neutral,Participant_Images/5eefc651cb94ad4c4d017b86/5eefc651cb94ad4c4d017b86_Images/5eefc651cb94ad4c4d017b86_Image_30.jpeg,did not like,0.534,,,,,NAN,NAN
5eefc651cb94ad4c4d017b86,64.0,Sam,Neutral,Participant_Images/5eefc651cb94ad4c4d017b86/5eefc651cb94ad4c4d017b86_Images/5eefc651cb94ad4c4d017b86_Image_26.jpeg,did not like,0.551,,,,,NAN,NAN
5eefc651cb94ad4c4d017b86,,,,,,,s,1.0,1.614,0.386,,
5eefc651cb94ad4c4d017b86,65.0,Sam,Neutral,Participant_Images/5eefc651cb94ad4c4d017b86/5eefc651cb94ad4c4d017b86_Images/5eefc651cb94ad4c4d017b86_Image_16.jpeg,liked,,,,,,NAN,NAN
5eefc651cb94ad4c4d017b86,66.0,Sam,Neutral,Participant_Images/5eefc651cb94ad4c4d017b86/5eefc651cb94ad4c4d017b86_Images/5eefc651cb94ad4c4d017b86_Image_10.jpeg,did not like,0.538,,,,,NAN,NAN
5eefc651cb94ad4c4d017b86,67.0,Sam,Neutral,Participant_Images/5eefc651cb94ad4c4d017b86/5eefc651cb94ad4c4d017b86_Images/5eefc651cb94ad4c4d017b86_Image_24.jpeg,did not like,0.619,,,,,NAN,NAN
5eefc651cb94ad4c4d017b86,68.0,Sam,Neutral,Participant_Images/5eefc651cb94ad4c4d017b86/5eefc651cb94ad4c4d017b86_Images/5eefc651cb94ad4c4d017b86_Image_2.jpeg,did not like,0.521,,,,,NAN,NAN
5eefc651cb94ad4c4d017b86,69.0,Sam,Neutral,Participant_Images/5eefc651cb94ad4c4d017b86/5eefc651cb94ad4c4d017b86_Images/5eefc651cb94ad4c4d017b86_Image_17.jpeg,liked,1.75,,,,,NAN,NAN
5eefc651cb94ad4c4d017b86,,,,,,,c,0.0,1.59,0.517,,
5eefc651cb94ad4c4d017b86,70.0,Sam,Neutral,Participant_Images/5eefc651cb94ad4c4d017b86/5eefc651cb94ad4c4d017b86_Images/5eefc651cb94ad4c4d017b86_Image_23.jpeg,liked,,,,,,NAN,NAN
5eefc651cb94ad4c4d017b86,71.0,Sam,Neutral,Participant_Images/5eefc651cb94ad4c4d017b86/5eefc651cb94ad4c4d017b86_Images/5eefc651cb94ad4c4d017b86_Image_20.jpeg,liked,0.521,,,,,NAN,NAN
5eefc651cb94ad4c4d017b86,72.0,Sam,Neutral,Participant_Images/5eefc651cb94ad4c4d017b86/5eefc651cb94ad4c4d017b86_Images/5eefc651cb94ad4c4d017b86_Image_21.jpeg,liked,0.75,,,,,NAN,NAN
5eefc651cb94ad4c4d017b86,73.0,Sam,Neutral,Participant_Images/5eefc651cb94ad4c4d017b86/5eefc651cb94ad4c4d017b86_Images/5eefc651cb94ad4c4d017b86_Image_29.jpeg,did not like,0.568,,,,,NAN,NAN
5eefc651cb94ad4c4d017b86,74.0,Sam,Neutral,Participant_Images/5eefc651cb94ad4c4d017b86/5eefc651cb94ad4c4d017b86_Images/5eefc651cb94ad4c4d017b86_Image_11.jpeg,liked,2.903,,,,,NAN,NAN
5eefc651cb94ad4c4d017b86,,,,,,,s,1.0,2.028,0.469,,
5eefc651cb94ad4c4d017b86,75.0,Sam,Neutral,Participant_Images/5eefc651cb94ad4c4d017b86/5eefc651cb94ad4c4d017b86_Images/5eefc651cb94ad4c4d017b86_Image_4.jpeg,liked,,,,,,NAN,NAN
5eefc651cb94ad4c4d017b86,76.0,Sam,Neutral,Participant_Images/5eefc651cb94ad4c4d017b86/5eefc651cb94ad4c4d017b86_Images/5eefc651cb94ad4c4d017b86_Image_19.jpeg,did not like,0.768,,,,,NAN,NAN
5eefc651cb94ad4c4d017b86,77.0,Sam,Neutral,Participant_Images/5eefc651cb94ad4c4d017b86/5eefc651cb94ad4c4d017b86_Images/5eefc651cb94ad4c4d017b86_Image_7.jpeg,liked,0.554,,,,,NAN,NAN
5eefc651cb94ad4c4d017b86,78.0,Sam,Neutral,Participant_Images/5eefc651cb94ad4c4d017b86/5eefc651cb94ad4c4d017b86_Images/5eefc651cb94ad4c4d017b86_Image_22.jpeg,did not like,0.467,,,,,NAN,NAN
5eefc651cb94ad4c4d017b86,79.0,Sam,Neutral,Participant_Images/5eefc651cb94ad4c4d017b86/5eefc651cb94ad4c4d017b86_Images/5eefc651cb94ad4c4d017b86_Image_28.jpeg,liked,0.617,,,,,NAN,NAN
5eefc651cb94ad4c4d017b86,,,,,,,,999.0,,3.092,,
5eefc651cb94ad4c4d017b86,80.0,Sam,Neutral,Participant_Images/5eefc651cb94ad4c4d017b86/5eefc651cb94ad4c4d017b86_Images/5eefc651cb94ad4c4d017b86_Image_6.jpeg,liked,,,,,,NAN,NAN
5eefc651cb94ad4c4d017b86,81.0,Sam,Neutral,Participant_Images/5eefc651cb94ad4c4d017b86/5eefc651cb94ad4c4d017b86_Images/5eefc651cb94ad4c4d017b86_Image_1.jpeg,liked,0.584,,,,,NAN,NAN
5eefc651cb94ad4c4d017b86,82.0,Sam,Neutral,Participant_Images/5eefc651cb94ad4c4d017b86/5eefc651cb94ad4c4d017b86_Images/5eefc651cb94ad4c4d017b86_Image_8.jpeg,liked,0.421,,,,,NAN,NAN
5eefc651cb94ad4c4d017b86,83.0,Sam,Neutral,Participant_Images/5eefc651cb94ad4c4d017b86/5eefc651cb94ad4c4d017b86_Images/5eefc651cb94ad4c4d017b86_Image_12.jpeg,did not like,0.537,,,,,NAN,NAN
5eefc651cb94ad4c4d017b86,84.0,Sam,Neutral,Participant_Images/5eefc651cb94ad4c4d017b86/5eefc651cb94ad4c4d017b86_Images/5eefc651cb94ad4c4d017b86_Image_13.jpeg,did not like,1.721,,,,,NAN,NAN
5eefc651cb94ad4c4d017b86,,,,,,,s,1.0,0.943,0.778,,
5eefc651cb94ad4c4d017b86,85.0,Sam,Neutral,Participant_Images/5eefc651cb94ad4c4d017b86/5eefc651cb94ad4c4d017b86_Images/5eefc651cb94ad4c4d017b86_Image_15.jpeg,liked,,,,,,NAN,NAN
5eefc651cb94ad4c4d017b86,86.0,Sam,Neutral,Participant_Images/5eefc651cb94ad4c4d017b86/5eefc651cb94ad4c4d017b86_Images/5eefc651cb94ad4c4d017b86_Image_14.jpeg,did not like,0.791,,,,,NAN,NAN
5eefc651cb94ad4c4d017b86,87.0,Sam,Neutral,Participant_Images/5eefc651cb94ad4c4d017b86/5eefc651cb94ad4c4d017b86_Images/5eefc651cb94ad4c4d017b86_Image_18.jpeg,liked,1.653,,,,,NAN,NAN
5eefc651cb94ad4c4d017b86,88.0,Sam,Neutral,Participant_Images/5eefc651cb94ad4c4d017b86/5eefc651cb94ad4c4d017b86_Images/5eefc651cb94ad4c4d017b86_Image_27.jpeg,did not like,0.705,,,,,NAN,NAN
5eefc651cb94ad4c4d017b86,89.0,Sam,Neutral,Participant_Images/5eefc651cb94ad4c4d017b86/5eefc651cb94ad4c4d017b86_Images/5eefc651cb94ad4c4d017b86_Image_25.jpeg,liked,0.989,,,,,NAN,NAN
5eefc651cb94ad4c4d017b86,,,,,,,s,1.0,1.581,0.569,,
5eefc651cb94ad4c4d017b86,90.0,Sam,Neutral,Participant_Images/5eefc651cb94ad4c4d017b86/5eefc651cb94ad4c4d017b86_Images/5eefc651cb94ad4c4d017b86_Image_5.jpeg,did not like,,,,,,1,5
5eefc651cb94ad4c4d017b86,91.0,Charlie,Rej,Participant_Images/5eefc651cb94ad4c4d017b86/5eefc651cb94ad4c4d017b86_Images/5eefc651cb94ad4c4d017b86_Image_19.jpeg,did not like,0.804,,,,,NAN,NAN
5eefc651cb94ad4c4d017b86,92.0,Charlie,Rej,Participant_Images/5eefc651cb94ad4c4d017b86/5eefc651cb94ad4c4d017b86_Images/5eefc651cb94ad4c4d017b86_Image_13.jpeg,did not like,0.924,,,,,NAN,NAN
5eefc651cb94ad4c4d017b86,93.0,Charlie,Rej,Participant_Images/5eefc651cb94ad4c4d017b86/5eefc651cb94ad4c4d017b86_Images/5eefc651cb94ad4c4d017b86_Image_7.jpeg,did not like,0.816,,,,,NAN,NAN
5eefc651cb94ad4c4d017b86,94.0,Charlie,Rej,Participant_Images/5eefc651cb94ad4c4d017b86/5eefc651cb94ad4c4d017b86_Images/5eefc651cb94ad4c4d017b86_Image_16.jpeg,did not like,0.803,,,,,NAN,NAN
5eefc651cb94ad4c4d017b86,,,,,,,c,0.0,1.614,1.254,,
5eefc651cb94ad4c4d017b86,95.0,Charlie,Rej,Participant_Images/5eefc651cb94ad4c4d017b86/5eefc651cb94ad4c4d017b86_Images/5eefc651cb94ad4c4d017b86_Image_9.jpeg,did not like,,,,,,NAN,NAN
5eefc651cb94ad4c4d017b86,96.0,Charlie,Rej,Participant_Images/5eefc651cb94ad4c4d017b86/5eefc651cb94ad4c4d017b86_Images/5eefc651cb94ad4c4d017b86_Image_18.jpeg,did not like,0.802,,,,,NAN,NAN
5eefc651cb94ad4c4d017b86,97.0,Charlie,Rej,Participant_Images/5eefc651cb94ad4c4d017b86/5eefc651cb94ad4c4d017b86_Images/5eefc651cb94ad4c4d017b86_Image_28.jpeg,liked,0.716,,,,,NAN,NAN
5eefc651cb94ad4c4d017b86,98.0,Charlie,Rej,Participant_Images/5eefc651cb94ad4c4d017b86/5eefc651cb94ad4c4d017b86_Images/5eefc651cb94ad4c4d017b86_Image_3.jpeg,liked,0.52,,,,,NAN,NAN
5eefc651cb94ad4c4d017b86,99.0,Charlie,Rej,Participant_Images/5eefc651cb94ad4c4d017b86/5eefc651cb94ad4c4d017b86_Images/5eefc651cb94ad4c4d017b86_Image_2.jpeg,did not like,0.42,,,,,NAN,NAN
5eefc651cb94ad4c4d017b86,,,,,,,c,0.0,1.661,0.82,,
5eefc651cb94ad4c4d017b86,100.0,Charlie,Rej,Participant_Images/5eefc651cb94ad4c4d017b86/5eefc651cb94ad4c4d017b86_Images/5eefc651cb94ad4c4d017b86_Image_15.jpeg,liked,,,,,,NAN,NAN
5eefc651cb94ad4c4d017b86,101.0,Charlie,Rej,Participant_Images/5eefc651cb94ad4c4d017b86/5eefc651cb94ad4c4d017b86_Images/5eefc651cb94ad4c4d017b86_Image_6.jpeg,did not like,0.487,,,,,NAN,NAN
5eefc651cb94ad4c4d017b86,102.0,Charlie,Rej,Participant_Images/5eefc651cb94ad4c4d017b86/5eefc651cb94ad4c4d017b86_Images/5eefc651cb94ad4c4d017b86_Image_22.jpeg,did not like,0.517,,,,,NAN,NAN
5eefc651cb94ad4c4d017b86,103.0,Charlie,Rej,Participant_Images/5eefc651cb94ad4c4d017b86/5eefc651cb94ad4c4d017b86_Images/5eefc651cb94ad4c4d017b86_Image_21.jpeg,liked,0.634,,,,,NAN,NAN
5eefc651cb94ad4c4d017b86,104.0,Charlie,Rej,Participant_Images/5eefc651cb94ad4c4d017b86/5eefc651cb94ad4c4d017b86_Images/5eefc651cb94ad4c4d017b86_Image_26.jpeg,liked,0.5,,,,,NAN,NAN
5eefc651cb94ad4c4d017b86,,,,,,,s,1.0,1.478,0.532,,
5eefc651cb94ad4c4d017b86,105.0,Charlie,Rej,Participant_Images/5eefc651cb94ad4c4d017b86/5eefc651cb94ad4c4d017b86_Images/5eefc651cb94ad4c4d017b86_Image_1.jpeg,did not like,,,,,,NAN,NAN
5eefc651cb94ad4c4d017b86,106.0,Charlie,Rej,Participant_Images/5eefc651cb94ad4c4d017b86/5eefc651cb94ad4c4d017b86_Images/5eefc651cb94ad4c4d017b86_Image_10.jpeg,did not like,1.087,,,,,NAN,NAN
5eefc651cb94ad4c4d017b86,107.0,Charlie,Rej,Participant_Images/5eefc651cb94ad4c4d017b86/5eefc651cb94ad4c4d017b86_Images/5eefc651cb94ad4c4d017b86_Image_8.jpeg,did not like,0.572,,,,,NAN,NAN
5eefc651cb94ad4c4d017b86,108.0,Charlie,Rej,Participant_Images/5eefc651cb94ad4c4d017b86/5eefc651cb94ad4c4d017b86_Images/5eefc651cb94ad4c4d017b86_Image_29.jpeg,liked,0.671,,,,,NAN,NAN
5eefc651cb94ad4c4d017b86,109.0,Charlie,Rej,Participant_Images/5eefc651cb94ad4c4d017b86/5eefc651cb94ad4c4d017b86_Images/5eefc651cb94ad4c4d017b86_Image_14.jpeg,did not like,0.484,,,,,NAN,NAN
5eefc651cb94ad4c4d017b86,,,,,,,s,1.0,1.741,0.786,,
5eefc651cb94ad4c4d017b86,110.0,Charlie,Rej,Participant_Images/5eefc651cb94ad4c4d017b86/5eefc651cb94ad4c4d017b86_Images/5eefc651cb94ad4c4d017b86_Image_27.jpeg,liked,,,,,,NAN,NAN
5eefc651cb94ad4c4d017b86,111.0,Charlie,Rej,Participant_Images/5eefc651cb94ad4c4d017b86/5eefc651cb94ad4c4d017b86_Images/5eefc651cb94ad4c4d017b86_Image_20.jpeg,liked,1.183,,,,,NAN,NAN
5eefc651cb94ad4c4d017b86,112.0,Charlie,Rej,Participant_Images/5eefc651cb94ad4c4d017b86/5eefc651cb94ad4c4d017b86_Images/5eefc651cb94ad4c4d017b86_Image_23.jpeg,did not like,0.535,,,,,NAN,NAN
5eefc651cb94ad4c4d017b86,113.0,Charlie,Rej,Participant_Images/5eefc651cb94ad4c4d017b86/5eefc651cb94ad4c4d017b86_Images/5eefc651cb94ad4c4d017b86_Image_17.jpeg,liked,0.587,,,,,NAN,NAN
5eefc651cb94ad4c4d017b86,114.0,Charlie,Rej,Participant_Images/5eefc651cb94ad4c4d017b86/5eefc651cb94ad4c4d017b86_Images/5eefc651cb94ad4c4d017b86_Image_5.jpeg,did not like,1.053,,,,,NAN,NAN
5eefc651cb94ad4c4d017b86,,,,,,,s,1.0,1.757,0.92,,
5eefc651cb94ad4c4d017b86,115.0,Charlie,Rej,Participant_Images/5eefc651cb94ad4c4d017b86/5eefc651cb94ad4c4d017b86_Images/5eefc651cb94ad4c4d017b86_Image_4.jpeg,did not like,,,,,,NAN,NAN
5eefc651cb94ad4c4d017b86,116.0,Charlie,Rej,Participant_Images/5eefc651cb94ad4c4d017b86/5eefc651cb94ad4c4d017b86_Images/5eefc651cb94ad4c4d017b86_Image_11.jpeg,did not like,0.5,,,,,NAN,NAN
5eefc651cb94ad4c4d017b86,117.0,Charlie,Rej,Participant_Images/5eefc651cb94ad4c4d017b86/5eefc651cb94ad4c4d017b86_Images/5eefc651cb94ad4c4d017b86_Image_25.jpeg,did not like,0.567,,,,,NAN,NAN
5eefc651cb94ad4c4d017b86,118.0,Charlie,Rej,Participant_Images/5eefc651cb94ad4c4d017b86/5eefc651cb94ad4c4d017b86_Images/5eefc651cb94ad4c4d017b86_Image_12.jpeg,did not like,1.001,,,,,NAN,NAN
5eefc651cb94ad4c4d017b86,119.0,Charlie,Rej,Participant_Images/5eefc651cb94ad4c4d017b86/5eefc651cb94ad4c4d017b86_Images/5eefc651cb94ad4c4d017b86_Image_30.jpeg,did not like,0.467,,,,,NAN,NAN
5eefc651cb94ad4c4d017b86,,,,,,,c,0.0,2.001,0.567,,
5eefc651cb94ad4c4d017b86,120.0,Charlie,Rej,Participant_Images/5eefc651cb94ad4c4d017b86/5eefc651cb94ad4c4d017b86_Images/5eefc651cb94ad4c4d017b86_Image_24.jpeg,did not like,,,,,,1,4
5eefc651cb94ad4c4d017b86,121.0,Alex,Rej,Participant_Images/5eefc651cb94ad4c4d017b86/5eefc651cb94ad4c4d017b86_Images/5eefc651cb94ad4c4d017b86_Image_12.jpeg,did not like,1.573,,,,,NAN,NAN
5eefc651cb94ad4c4d017b86,122.0,Alex,Rej,Participant_Images/5eefc651cb94ad4c4d017b86/5eefc651cb94ad4c4d017b86_Images/5eefc651cb94ad4c4d017b86_Image_17.jpeg,did not like,1.534,,,,,NAN,NAN
5eefc651cb94ad4c4d017b86,123.0,Alex,Rej,Participant_Images/5eefc651cb94ad4c4d017b86/5eefc651cb94ad4c4d017b86_Images/5eefc651cb94ad4c4d017b86_Image_27.jpeg,did not like,1.65,,,,,NAN,NAN
5eefc651cb94ad4c4d017b86,124.0,Alex,Rej,Participant_Images/5eefc651cb94ad4c4d017b86/5eefc651cb94ad4c4d017b86_Images/5eefc651cb94ad4c4d017b86_Image_16.jpeg,liked,1.501,,,,,NAN,NAN
5eefc651cb94ad4c4d017b86,,,,,,,,999.0,,0.789,,
5eefc651cb94ad4c4d017b86,125.0,Alex,Rej,Participant_Images/5eefc651cb94ad4c4d017b86/5eefc651cb94ad4c4d017b86_Images/5eefc651cb94ad4c4d017b86_Image_22.jpeg,did not like,,,,,,NAN,NAN
5eefc651cb94ad4c4d017b86,126.0,Alex,Rej,Participant_Images/5eefc651cb94ad4c4d017b86/5eefc651cb94ad4c4d017b86_Images/5eefc651cb94ad4c4d017b86_Image_30.jpeg,did not like,0.584,,,,,NAN,NAN
5eefc651cb94ad4c4d017b86,127.0,Alex,Rej,Participant_Images/5eefc651cb94ad4c4d017b86/5eefc651cb94ad4c4d017b86_Images/5eefc651cb94ad4c4d017b86_Image_29.jpeg,did not like,0.387,,,,,NAN,NAN
5eefc651cb94ad4c4d017b86,128.0,Alex,Rej,Participant_Images/5eefc651cb94ad4c4d017b86/5eefc651cb94ad4c4d017b86_Images/5eefc651cb94ad4c4d017b86_Image_1.jpeg,did not like,0.352,,,,,NAN,NAN
5eefc651cb94ad4c4d017b86,129.0,Alex,Rej,Participant_Images/5eefc651cb94ad4c4d017b86/5eefc651cb94ad4c4d017b86_Images/5eefc651cb94ad4c4d017b86_Image_21.jpeg,liked,0.483,,,,,NAN,NAN
5eefc651cb94ad4c4d017b86,,,,,,,c,0.0,2.242,0.411,,
5eefc651cb94ad4c4d017b86,130.0,Alex,Rej,Participant_Images/5eefc651cb94ad4c4d017b86/5eefc651cb94ad4c4d017b86_Images/5eefc651cb94ad4c4d017b86_Image_26.jpeg,did not like,,,,,,NAN,NAN
5eefc651cb94ad4c4d017b86,131.0,Alex,Rej,Participant_Images/5eefc651cb94ad4c4d017b86/5eefc651cb94ad4c4d017b86_Images/5eefc651cb94ad4c4d017b86_Image_7.jpeg,did not like,0.587,,,,,NAN,NAN
5eefc651cb94ad4c4d017b86,132.0,Alex,Rej,Participant_Images/5eefc651cb94ad4c4d017b86/5eefc651cb94ad4c4d017b86_Images/5eefc651cb94ad4c4d017b86_Image_20.jpeg,did not like,0.503,,,,,NAN,NAN
5eefc651cb94ad4c4d017b86,133.0,Alex,Rej,Participant_Images/5eefc651cb94ad4c4d017b86/5eefc651cb94ad4c4d017b86_Images/5eefc651cb94ad4c4d017b86_Image_18.jpeg,did not like,0.684,,,,,NAN,NAN
5eefc651cb94ad4c4d017b86,134.0,Alex,Rej,Participant_Images/5eefc651cb94ad4c4d017b86/5eefc651cb94ad4c4d017b86_Images/5eefc651cb94ad4c4d017b86_Image_9.jpeg,did not like,0.334,,,,,NAN,NAN
5eefc651cb94ad4c4d017b86,,,,,,,c,0.0,1.996,0.585,,
5eefc651cb94ad4c4d017b86,135.0,Alex,Rej,Participant_Images/5eefc651cb94ad4c4d017b86/5eefc651cb94ad4c4d017b86_Images/5eefc651cb94ad4c4d017b86_Image_8.jpeg,did not like,,,,,,NAN,NAN
5eefc651cb94ad4c4d017b86,136.0,Alex,Rej,Participant_Images/5eefc651cb94ad4c4d017b86/5eefc651cb94ad4c4d017b86_Images/5eefc651cb94ad4c4d017b86_Image_24.jpeg,liked,1.137,,,,,NAN,NAN
5eefc651cb94ad4c4d017b86,137.0,Alex,Rej,Participant_Images/5eefc651cb94ad4c4d017b86/5eefc651cb94ad4c4d017b86_Images/5eefc651cb94ad4c4d017b86_Image_15.jpeg,liked,0.766,,,,,NAN,NAN
5eefc651cb94ad4c4d017b86,138.0,Alex,Rej,Participant_Images/5eefc651cb94ad4c4d017b86/5eefc651cb94ad4c4d017b86_Images/5eefc651cb94ad4c4d017b86_Image_23.jpeg,did not like,0.601,,,,,NAN,NAN
5eefc651cb94ad4c4d017b86,139.0,Alex,Rej,Participant_Images/5eefc651cb94ad4c4d017b86/5eefc651cb94ad4c4d017b86_Images/5eefc651cb94ad4c4d017b86_Image_10.jpeg,did not like,0.487,,,,,NAN,NAN
5eefc651cb94ad4c4d017b86,,,,,,,c,0.0,1.491,0.818,,
5eefc651cb94ad4c4d017b86,140.0,Alex,Rej,Participant_Images/5eefc651cb94ad4c4d017b86/5eefc651cb94ad4c4d017b86_Images/5eefc651cb94ad4c4d017b86_Image_4.jpeg,liked,,,,,,NAN,NAN
5eefc651cb94ad4c4d017b86,141.0,Alex,Rej,Participant_Images/5eefc651cb94ad4c4d017b86/5eefc651cb94ad4c4d017b86_Images/5eefc651cb94ad4c4d017b86_Image_11.jpeg,liked,3.283,,,,,NAN,NAN
5eefc651cb94ad4c4d017b86,142.0,Alex,Rej,Participant_Images/5eefc651cb94ad4c4d017b86/5eefc651cb94ad4c4d017b86_Images/5eefc651cb94ad4c4d017b86_Image_28.jpeg,liked,0.384,,,,,NAN,NAN
5eefc651cb94ad4c4d017b86,143.0,Alex,Rej,Participant_Images/5eefc651cb94ad4c4d017b86/5eefc651cb94ad4c4d017b86_Images/5eefc651cb94ad4c4d017b86_Image_5.jpeg,did not like,3.371,,,,,NAN,NAN
5eefc651cb94ad4c4d017b86,144.0,Alex,Rej,Participant_Images/5eefc651cb94ad4c4d017b86/5eefc651cb94ad4c4d017b86_Images/5eefc651cb94ad4c4d017b86_Image_14.jpeg,did not like,0.77,,,,,NAN,NAN
5eefc651cb94ad4c4d017b86,,,,,,,s,1.0,2.244,0.468,,
5eefc651cb94ad4c4d017b86,145.0,Alex,Rej,Participant_Images/5eefc651cb94ad4c4d017b86/5eefc651cb94ad4c4d017b86_Images/5eefc651cb94ad4c4d017b86_Image_19.jpeg,did not like,,,,,,NAN,NAN
5eefc651cb94ad4c4d017b86,146.0,Alex,Rej,Participant_Images/5eefc651cb94ad4c4d017b86/5eefc651cb94ad4c4d017b86_Images/5eefc651cb94ad4c4d017b86_Image_6.jpeg,did not like,0.818,,,,,NAN,NAN
5eefc651cb94ad4c4d017b86,147.0,Alex,Rej,Participant_Images/5eefc651cb94ad4c4d017b86/5eefc651cb94ad4c4d017b86_Images/5eefc651cb94ad4c4d017b86_Image_25.jpeg,liked,0.434,,,,,NAN,NAN
5eefc651cb94ad4c4d017b86,148.0,Alex,Rej,Participant_Images/5eefc651cb94ad4c4d017b86/5eefc651cb94ad4c4d017b86_Images/5eefc651cb94ad4c4d017b86_Image_2.jpeg,did not like,0.867,,,,,NAN,NAN
5eefc651cb94ad4c4d017b86,149.0,Alex,Rej,Participant_Images/5eefc651cb94ad4c4d017b86/5eefc651cb94ad4c4d017b86_Images/5eefc651cb94ad4c4d017b86_Image_3.jpeg,did not like,0.75,,,,,NAN,NAN
5eefc651cb94ad4c4d017b86,,,,,,,c,0.0,1.809,1.302,,
5eefc651cb94ad4c4d017b86,150.0,Alex,Rej,Participant_Images/5eefc651cb94ad4c4d017b86/5eefc651cb94ad4c4d017b86_Images/5eefc651cb94ad4c4d017b86_Image_13.jpeg,liked,,,,,,2,6
5eefc651cb94ad4c4d017b86,,,,,,,,,,,,
5a4636c92f91ec0001dcba07,1.0,Taylor,Rej,Participant_Images/5a4636c92f91ec0001dcba07/5a4636c92f91ec0001dcba07_Images/5a4636c92f91ec0001dcba07_Image_15.jpeg,liked,0.8896,,,,,NAN,NAN
5a4636c92f91ec0001dcba07,2.0,Taylor,Rej,Participant_Images/5a4636c92f91ec0001dcba07/5a4636c92f91ec0001dcba07_Images/5a4636c92f91ec0001dcba07_Image_12.jpeg,did not like,3.385,,,,,NAN,NAN
5a4636c92f91ec0001dcba07,3.0,Taylor,Rej,Participant_Images/5a4636c92f91ec0001dcba07/5a4636c92f91ec0001dcba07_Images/5a4636c92f91ec0001dcba07_Image_2.jpeg,did not like,0.8186,,,,,NAN,NAN
5a4636c92f91ec0001dcba07,4.0,Taylor,Rej,Participant_Images/5a4636c92f91ec0001dcba07/5a4636c92f91ec0001dcba07_Images/5a4636c92f91ec0001dcba07_Image_11.jpeg,did not like,0.8321,,,,,NAN,NAN
5a4636c92f91ec0001dcba07,,,,,,,,999.0,,2.77,,
5a4636c92f91ec0001dcba07,5.0,Taylor,Rej,Participant_Images/5a4636c92f91ec0001dcba07/5a4636c92f91ec0001dcba07_Images/5a4636c92f91ec0001dcba07_Image_30.jpeg,did not like,,,,,,NAN,NAN
5a4636c92f91ec0001dcba07,6.0,Taylor,Rej,Participant_Images/5a4636c92f91ec0001dcba07/5a4636c92f91ec0001dcba07_Images/5a4636c92f91ec0001dcba07_Image_24.jpeg,liked,1.4235,,,,,NAN,NAN
5a4636c92f91ec0001dcba07,7.0,Taylor,Rej,Participant_Images/5a4636c92f91ec0001dcba07/5a4636c92f91ec0001dcba07_Images/5a4636c92f91ec0001dcba07_Image_6.jpeg,did not like,0.5575,,,,,NAN,NAN
5a4636c92f91ec0001dcba07,8.0,Taylor,Rej,Participant_Images/5a4636c92f91ec0001dcba07/5a4636c92f91ec0001dcba07_Images/5a4636c92f91ec0001dcba07_Image_25.jpeg,liked,0.4915,,,,,NAN,NAN
5a4636c92f91ec0001dcba07,9.0,Taylor,Rej,Participant_Images/5a4636c92f91ec0001dcba07/5a4636c92f91ec0001dcba07_Images/5a4636c92f91ec0001dcba07_Image_17.jpeg,liked,0.3569,,,,,NAN,NAN
5a4636c92f91ec0001dcba07,,,,,,,c,0.0,1.4358,0.8565,,
5a4636c92f91ec0001dcba07,10.0,Taylor,Rej,Participant_Images/5a4636c92f91ec0001dcba07/5a4636c92f91ec0001dcba07_Images/5a4636c92f91ec0001dcba07_Image_26.jpeg,did not like,,,,,,NAN,NAN
5a4636c92f91ec0001dcba07,11.0,Taylor,Rej,Participant_Images/5a4636c92f91ec0001dcba07/5a4636c92f91ec0001dcba07_Images/5a4636c92f91ec0001dcba07_Image_13.jpeg,did not like,0.3395,,,,,NAN,NAN
5a4636c92f91ec0001dcba07,12.0,Taylor,Rej,Participant_Images/5a4636c92f91ec0001dcba07/5a4636c92f91ec0001dcba07_Images/5a4636c92f91ec0001dcba07_Image_5.jpeg,did not like,0.5671,,,,,NAN,NAN
5a4636c92f91ec0001dcba07,13.0,Taylor,Rej,Participant_Images/5a4636c92f91ec0001dcba07/5a4636c92f91ec0001dcba07_Images/5a4636c92f91ec0001dcba07_Image_14.jpeg,did not like,0.5997,,,,,NAN,NAN
5a4636c92f91ec0001dcba07,14.0,Taylor,Rej,Participant_Images/5a4636c92f91ec0001dcba07/5a4636c92f91ec0001dcba07_Images/5a4636c92f91ec0001dcba07_Image_7.jpeg,did not like,0.6623,,,,,NAN,NAN
5a4636c92f91ec0001dcba07,,,,,,,s,1.0,1.7838,0.6854,,
5a4636c92f91ec0001dcba07,15.0,Taylor,Rej,Participant_Images/5a4636c92f91ec0001dcba07/5a4636c92f91ec0001dcba07_Images/5a4636c92f91ec0001dcba07_Image_10.jpeg,did not like,,,,,,NAN,NAN
5a4636c92f91ec0001dcba07,16.0,Taylor,Rej,Participant_Images/5a4636c92f91ec0001dcba07/5a4636c92f91ec0001dcba07_Images/5a4636c92f91ec0001dcba07_Image_23.jpeg,did not like,0.4039,,,,,NAN,NAN
5a4636c92f91ec0001dcba07,17.0,Taylor,Rej,Participant_Images/5a4636c92f91ec0001dcba07/5a4636c92f91ec0001dcba07_Images/5a4636c92f91ec0001dcba07_Image_27.jpeg,did not like,0.4698,,,,,NAN,NAN
5a4636c92f91ec0001dcba07,18.0,Taylor,Rej,Participant_Images/5a4636c92f91ec0001dcba07/5a4636c92f91ec0001dcba07_Images/5a4636c92f91ec0001dcba07_Image_19.jpeg,did not like,0.6177,,,,,NAN,NAN
5a4636c92f91ec0001dcba07,19.0,Taylor,Rej,Participant_Images/5a4636c92f91ec0001dcba07/5a4636c92f91ec0001dcba07_Images/5a4636c92f91ec0001dcba07_Image_28.jpeg,liked,0.3228,,,,,NAN,NAN
5a4636c92f91ec0001dcba07,,,,,,,c,0.0,0.9998,0.8304,,
5a4636c92f91ec0001dcba07,20.0,Taylor,Rej,Participant_Images/5a4636c92f91ec0001dcba07/5a4636c92f91ec0001dcba07_Images/5a4636c92f91ec0001dcba07_Image_20.jpeg,did not like,,,,,,NAN,NAN
5a4636c92f91ec0001dcba07,21.0,Taylor,Rej,Participant_Images/5a4636c92f91ec0001dcba07/5a4636c92f91ec0001dcba07_Images/5a4636c92f91ec0001dcba07_Image_18.jpeg,did not like,1.0197,,,,,NAN,NAN
5a4636c92f91ec0001dcba07,22.0,Taylor,Rej,Participant_Images/5a4636c92f91ec0001dcba07/5a4636c92f91ec0001dcba07_Images/5a4636c92f91ec0001dcba07_Image_29.jpeg,did not like,0.5245,,,,,NAN,NAN
5a4636c92f91ec0001dcba07,23.0,Taylor,Rej,Participant_Images/5a4636c92f91ec0001dcba07/5a4636c92f91ec0001dcba07_Images/5a4636c92f91ec0001dcba07_Image_4.jpeg,liked,0.6359,,,,,NAN,NAN
5a4636c92f91ec0001dcba07,24.0,Taylor,Rej,Participant_Images/5a4636c92f91ec0001dcba07/5a4636c92f91ec0001dcba07_Images/5a4636c92f91ec0001dcba07_Image_22.jpeg,liked,0.6746,,,,,NAN,NAN
5a4636c92f91ec0001dcba07,,,,,,,c,0.0,0.9745,0.559,,
5a4636c92f91ec0001dcba07,25.0,Taylor,Rej,Participant_Images/5a4636c92f91ec0001dcba07/5a4636c92f91ec0001dcba07_Images/5a4636c92f91ec0001dcba07_Image_21.jpeg,liked,,,,,,NAN,NAN
5a4636c92f91ec0001dcba07,26.0,Taylor,Rej,Participant_Images/5a4636c92f91ec0001dcba07/5a4636c92f91ec0001dcba07_Images/5a4636c92f91ec0001dcba07_Image_3.jpeg,did not like,0.7745,,,,,NAN,NAN
5a4636c92f91ec0001dcba07,27.0,Taylor,Rej,Participant_Images/5a4636c92f91ec0001dcba07/5a4636c92f91ec0001dcba07_Images/5a4636c92f91ec0001dcba07_Image_1.jpeg,did not like,0.5575,,,,,NAN,NAN
5a4636c92f91ec0001dcba07,28.0,Taylor,Rej,Participant_Images/5a4636c92f91ec0001dcba07/5a4636c92f91ec0001dcba07_Images/5a4636c92f91ec0001dcba07_Image_16.jpeg,liked,0.7463,,,,,NAN,NAN
5a4636c92f91ec0001dcba07,29.0,Taylor,Rej,Participant_Images/5a4636c92f91ec0001dcba07/5a4636c92f91ec0001dcba07_Images/5a4636c92f91ec0001dcba07_Image_9.jpeg,did not like,0.7111,,,,,NAN,NAN
5a4636c92f91ec0001dcba07,,,,,,,c,0.0,0.9504,0.6248,,
5a4636c92f91ec0001dcba07,30.0,Taylor,Rej,Participant_Images/5a4636c92f91ec0001dcba07/5a4636c92f91ec0001dcba07_Images/5a4636c92f91ec0001dcba07_Image_8.jpeg,did not like,,,,,,2,6
5a4636c92f91ec0001dcba07,31.0,Riley,Neutral,Participant_Images/5a4636c92f91ec0001dcba07/5a4636c92f91ec0001dcba07_Images/5a4636c92f91ec0001dcba07_Image_15.jpeg,liked,1.0415,,,,,NAN,NAN
5a4636c92f91ec0001dcba07,32.0,Riley,Neutral,Participant_Images/5a4636c92f91ec0001dcba07/5a4636c92f91ec0001dcba07_Images/5a4636c92f91ec0001dcba07_Image_25.jpeg,did not like,1.5179,,,,,NAN,NAN
5a4636c92f91ec0001dcba07,33.0,Riley,Neutral,Participant_Images/5a4636c92f91ec0001dcba07/5a4636c92f91ec0001dcba07_Images/5a4636c92f91ec0001dcba07_Image_27.jpeg,did not like,0.9752,,,,,NAN,NAN
5a4636c92f91ec0001dcba07,34.0,Riley,Neutral,Participant_Images/5a4636c92f91ec0001dcba07/5a4636c92f91ec0001dcba07_Images/5a4636c92f91ec0001dcba07_Image_19.jpeg,did not like,0.6201,,,,,NAN,NAN
5a4636c92f91ec0001dcba07,,,,,,,c,0.0,0.7285,0.6285,,
5a4636c92f91ec0001dcba07,35.0,Riley,Neutral,Participant_Images/5a4636c92f91ec0001dcba07/5a4636c92f91ec0001dcba07_Images/5a4636c92f91ec0001dcba07_Image_18.jpeg,did not like,,,,,,NAN,NAN
5a4636c92f91ec0001dcba07,36.0,Riley,Neutral,Participant_Images/5a4636c92f91ec0001dcba07/5a4636c92f91ec0001dcba07_Images/5a4636c92f91ec0001dcba07_Image_9.jpeg,did not like,0.174,,,,,NAN,NAN
5a4636c92f91ec0001dcba07,37.0,Riley,Neutral,Participant_Images/5a4636c92f91ec0001dcba07/5a4636c92f91ec0001dcba07_Images/5a4636c92f91ec0001dcba07_Image_24.jpeg,liked,0.7509,,,,,NAN,NAN
5a4636c92f91ec0001dcba07,38.0,Riley,Neutral,Participant_Images/5a4636c92f91ec0001dcba07/5a4636c92f91ec0001dcba07_Images/5a4636c92f91ec0001dcba07_Image_7.jpeg,did not like,0.6693,,,,,NAN,NAN
5a4636c92f91ec0001dcba07,39.0,Riley,Neutral,Participant_Images/5a4636c92f91ec0001dcba07/5a4636c92f91ec0001dcba07_Images/5a4636c92f91ec0001dcba07_Image_26.jpeg,liked,0.7577,,,,,NAN,NAN
5a4636c92f91ec0001dcba07,,,,,,,c,0.0,0.6978,1.0796,,
5a4636c92f91ec0001dcba07,40.0,Riley,Neutral,Participant_Images/5a4636c92f91ec0001dcba07/5a4636c92f91ec0001dcba07_Images/5a4636c92f91ec0001dcba07_Image_17.jpeg,did not like,,,,,,NAN,NAN
5a4636c92f91ec0001dcba07,41.0,Riley,Neutral,Participant_Images/5a4636c92f91ec0001dcba07/5a4636c92f91ec0001dcba07_Images/5a4636c92f91ec0001dcba07_Image_20.jpeg,liked,1.602,,,,,NAN,NAN
5a4636c92f91ec0001dcba07,42.0,Riley,Neutral,Participant_Images/5a4636c92f91ec0001dcba07/5a4636c92f91ec0001dcba07_Images/5a4636c92f91ec0001dcba07_Image_5.jpeg,liked,0.9008,,,,,NAN,NAN
5a4636c92f91ec0001dcba07,43.0,Riley,Neutral,Participant_Images/5a4636c92f91ec0001dcba07/5a4636c92f91ec0001dcba07_Images/5a4636c92f91ec0001dcba07_Image_16.jpeg,liked,1.5939,,,,,NAN,NAN
5a4636c92f91ec0001dcba07,44.0,Riley,Neutral,Participant_Images/5a4636c92f91ec0001dcba07/5a4636c92f91ec0001dcba07_Images/5a4636c92f91ec0001dcba07_Image_14.jpeg,liked,3.0223,,,,,NAN,NAN
5a4636c92f91ec0001dcba07,,,,,,,c,0.0,1.1949,0.9691,,
5a4636c92f91ec0001dcba07,45.0,Riley,Neutral,Participant_Images/5a4636c92f91ec0001dcba07/5a4636c92f91ec0001dcba07_Images/5a4636c92f91ec0001dcba07_Image_28.jpeg,did not like,,,,,,NAN,NAN
5a4636c92f91ec0001dcba07,46.0,Riley,Neutral,Participant_Images/5a4636c92f91ec0001dcba07/5a4636c92f91ec0001dcba07_Images/5a4636c92f91ec0001dcba07_Image_10.jpeg,liked,0.6686,,,,,NAN,NAN
5a4636c92f91ec0001dcba07,47.0,Riley,Neutral,Participant_Images/5a4636c92f91ec0001dcba07/5a4636c92f91ec0001dcba07_Images/5a4636c92f91ec0001dcba07_Image_1.jpeg,did not like,0.5476,,,,,NAN,NAN
5a4636c92f91ec0001dcba07,48.0,Riley,Neutral,Participant_Images/5a4636c92f91ec0001dcba07/5a4636c92f91ec0001dcba07_Images/5a4636c92f91ec0001dcba07_Image_3.jpeg,did not like,0.6019,,,,,NAN,NAN
5a4636c92f91ec0001dcba07,49.0,Riley,Neutral,Participant_Images/5a4636c92f91ec0001dcba07/5a4636c92f91ec0001dcba07_Images/5a4636c92f91ec0001dcba07_Image_22.jpeg,did not like,0.6677,,,,,NAN,NAN
5a4636c92f91ec0001dcba07,,,,,,,c,0.0,0.8819,0.6465,,
5a4636c92f91ec0001dcba07,50.0,Riley,Neutral,Participant_Images/5a4636c92f91ec0001dcba07/5a4636c92f91ec0001dcba07_Images/5a4636c92f91ec0001dcba07_Image_8.jpeg,liked,,,,,,NAN,NAN
5a4636c92f91ec0001dcba07,51.0,Riley,Neutral,Participant_Images/5a4636c92f91ec0001dcba07/5a4636c92f91ec0001dcba07_Images/5a4636c92f91ec0001dcba07_Image_6.jpeg,did not like,1.5094,,,,,NAN,NAN
5a4636c92f91ec0001dcba07,52.0,Riley,Neutral,Participant_Images/5a4636c92f91ec0001dcba07/5a4636c92f91ec0001dcba07_Images/5a4636c92f91ec0001dcba07_Image_29.jpeg,liked,0.651,,,,,NAN,NAN
5a4636c92f91ec0001dcba07,53.0,Riley,Neutral,Participant_Images/5a4636c92f91ec0001dcba07/5a4636c92f91ec0001dcba07_Images/5a4636c92f91ec0001dcba07_Image_30.jpeg,liked,0.6195,,,,,NAN,NAN
5a4636c92f91ec0001dcba07,54.0,Riley,Neutral,Participant_Images/5a4636c92f91ec0001dcba07/5a4636c92f91ec0001dcba07_Images/5a4636c92f91ec0001dcba07_Image_4.jpeg,liked,0.9179,,,,,NAN,NAN
5a4636c92f91ec0001dcba07,,,,,,,c,0.0,1.569,0.8862,,
5a4636c92f91ec0001dcba07,55.0,Riley,Neutral,Participant_Images/5a4636c92f91ec0001dcba07/5a4636c92f91ec0001dcba07_Images/5a4636c92f91ec0001dcba07_Image_23.jpeg,liked,,,,,,NAN,NAN
5a4636c92f91ec0001dcba07,56.0,Riley,Neutral,Participant_Images/5a4636c92f91ec0001dcba07/5a4636c92f91ec0001dcba07_Images/5a4636c92f91ec0001dcba07_Image_12.jpeg,did not like,1.2355,,,,,NAN,NAN
5a4636c92f91ec0001dcba07,57.0,Riley,Neutral,Participant_Images/5a4636c92f91ec0001dcba07/5a4636c92f91ec0001dcba07_Images/5a4636c92f91ec0001dcba07_Image_21.jpeg,did not like,0.7035,,,,,NAN,NAN
5a4636c92f91ec0001dcba07,58.0,Riley,Neutral,Participant_Images/5a4636c92f91ec0001dcba07/5a4636c92f91ec0001dcba07_Images/5a4636c92f91ec0001dcba07_Image_13.jpeg,did not like,0.97,,,,,NAN,NAN
5a4636c92f91ec0001dcba07,59.0,Riley,Neutral,Participant_Images/5a4636c92f91ec0001dcba07/5a4636c92f91ec0001dcba07_Images/5a4636c92f91ec0001dcba07_Image_2.jpeg,liked,4.2371,,,,,NAN,NAN
5a4636c92f91ec0001dcba07,,,,,,,c,0.0,0.6741,0.9036,,
5a4636c92f91ec0001dcba07,60.0,Riley,Neutral,Participant_Images/5a4636c92f91ec0001dcba07/5a4636c92f91ec0001dcba07_Images/5a4636c92f91ec0001dcba07_Image_11.jpeg,liked,,,,,,3,6
5a4636c92f91ec0001dcba07,61.0,Alex,Rej,Participant_Images/5a4636c92f91ec0001dcba07/5a4636c92f91ec0001dcba07_Images/5a4636c92f91ec0001dcba07_Image_18.jpeg,liked,0.8343,,,,,NAN,NAN
5a4636c92f91ec0001dcba07,62.0,Alex,Rej,Participant_Images/5a4636c92f91ec0001dcba07/5a4636c92f91ec0001dcba07_Images/5a4636c92f91ec0001dcba07_Image_15.jpeg,liked,0.951,,,,,NAN,NAN
5a4636c92f91ec0001dcba07,63.0,Alex,Rej,Participant_Images/5a4636c92f91ec0001dcba07/5a4636c92f91ec0001dcba07_Images/5a4636c92f91ec0001dcba07_Image_1.jpeg,did not like,1.9487,,,,,NAN,NAN
5a4636c92f91ec0001dcba07,64.0,Alex,Rej,Participant_Images/5a4636c92f91ec0001dcba07/5a4636c92f91ec0001dcba07_Images/5a4636c92f91ec0001dcba07_Image_9.jpeg,did not like,0.6952,,,,,NAN,NAN
5a4636c92f91ec0001dcba07,,,,,,,c,0.0,1.3785,0.8599,,
5a4636c92f91ec0001dcba07,65.0,Alex,Rej,Participant_Images/5a4636c92f91ec0001dcba07/5a4636c92f91ec0001dcba07_Images/5a4636c92f91ec0001dcba07_Image_12.jpeg,did not like,,,,,,NAN,NAN
5a4636c92f91ec0001dcba07,66.0,Alex,Rej,Participant_Images/5a4636c92f91ec0001dcba07/5a4636c92f91ec0001dcba07_Images/5a4636c92f91ec0001dcba07_Image_8.jpeg,did not like,1.4344,,,,,NAN,NAN
5a4636c92f91ec0001dcba07,67.0,Alex,Rej,Participant_Images/5a4636c92f91ec0001dcba07/5a4636c92f91ec0001dcba07_Images/5a4636c92f91ec0001dcba07_Image_5.jpeg,liked,0.9007,,,,,NAN,NAN
5a4636c92f91ec0001dcba07,68.0,Alex,Rej,Participant_Images/5a4636c92f91ec0001dcba07/5a4636c92f91ec0001dcba07_Images/5a4636c92f91ec0001dcba07_Image_6.jpeg,did not like,0.6671,,,,,NAN,NAN
5a4636c92f91ec0001dcba07,69.0,Alex,Rej,Participant_Images/5a4636c92f91ec0001dcba07/5a4636c92f91ec0001dcba07_Images/5a4636c92f91ec0001dcba07_Image_24.jpeg,did not like,1.2529,,,,,NAN,NAN
5a4636c92f91ec0001dcba07,,,,,,,c,0.0,1.002,1.0503,,
5a4636c92f91ec0001dcba07,70.0,Alex,Rej,Participant_Images/5a4636c92f91ec0001dcba07/5a4636c92f91ec0001dcba07_Images/5a4636c92f91ec0001dcba07_Image_29.jpeg,liked,,,,,,NAN,NAN
5a4636c92f91ec0001dcba07,71.0,Alex,Rej,Participant_Images/5a4636c92f91ec0001dcba07/5a4636c92f91ec0001dcba07_Images/5a4636c92f91ec0001dcba07_Image_19.jpeg,did not like,0.8185,,,,,NAN,NAN
5a4636c92f91ec0001dcba07,72.0,Alex,Rej,Participant_Images/5a4636c92f91ec0001dcba07/5a4636c92f91ec0001dcba07_Images/5a4636c92f91ec0001dcba07_Image_27.jpeg,did not like,0.8173,,,,,NAN,NAN
5a4636c92f91ec0001dcba07,73.0,Alex,Rej,Participant_Images/5a4636c92f91ec0001dcba07/5a4636c92f91ec0001dcba07_Images/5a4636c92f91ec0001dcba07_Image_25.jpeg,did not like,1.5628,,,,,NAN,NAN
5a4636c92f91ec0001dcba07,74.0,Alex,Rej,Participant_Images/5a4636c92f91ec0001dcba07/5a4636c92f91ec0001dcba07_Images/5a4636c92f91ec0001dcba07_Image_2.jpeg,did not like,0.7686,,,,,NAN,NAN
5a4636c92f91ec0001dcba07,,,,,,,c,0.0,0.7689,0.7549,,
5a4636c92f91ec0001dcba07,75.0,Alex,Rej,Participant_Images/5a4636c92f91ec0001dcba07/5a4636c92f91ec0001dcba07_Images/5a4636c92f91ec0001dcba07_Image_22.jpeg,did not like,,,,,,NAN,NAN
5a4636c92f91ec0001dcba07,76.0,Alex,Rej,Participant_Images/5a4636c92f91ec0001dcba07/5a4636c92f91ec0001dcba07_Images/5a4636c92f91ec0001dcba07_Image_10.jpeg,did not like,1.0251,,,,,NAN,NAN
5a4636c92f91ec0001dcba07,77.0,Alex,Rej,Participant_Images/5a4636c92f91ec0001dcba07/5a4636c92f91ec0001dcba07_Images/5a4636c92f91ec0001dcba07_Image_30.jpeg,liked,5.6864,,,,,NAN,NAN
5a4636c92f91ec0001dcba07,78.0,Alex,Rej,Participant_Images/5a4636c92f91ec0001dcba07/5a4636c92f91ec0001dcba07_Images/5a4636c92f91ec0001dcba07_Image_21.jpeg,did not like,0.9057,,,,,NAN,NAN
5a4636c92f91ec0001dcba07,79.0,Alex,Rej,Participant_Images/5a4636c92f91ec0001dcba07/5a4636c92f91ec0001dcba07_Images/5a4636c92f91ec0001dcba07_Image_13.jpeg,did not like,1.8331,,,,,NAN,NAN
5a4636c92f91ec0001dcba07,,,,,,,c,0.0,0.7144,0.6305,,
5a4636c92f91ec0001dcba07,80.0,Alex,Rej,Participant_Images/5a4636c92f91ec0001dcba07/5a4636c92f91ec0001dcba07_Images/5a4636c92f91ec0001dcba07_Image_20.jpeg,did not like,,,,,,NAN,NAN
5a4636c92f91ec0001dcba07,81.0,Alex,Rej,Participant_Images/5a4636c92f91ec0001dcba07/5a4636c92f91ec0001dcba07_Images/5a4636c92f91ec0001dcba07_Image_23.jpeg,did not like,1.0528,,,,,NAN,NAN
5a4636c92f91ec0001dcba07,82.0,Alex,Rej,Participant_Images/5a4636c92f91ec0001dcba07/5a4636c92f91ec0001dcba07_Images/5a4636c92f91ec0001dcba07_Image_3.jpeg,did not like,0.5665,,,,,NAN,NAN
5a4636c92f91ec0001dcba07,83.0,Alex,Rej,Participant_Images/5a4636c92f91ec0001dcba07/5a4636c92f91ec0001dcba07_Images/5a4636c92f91ec0001dcba07_Image_28.jpeg,liked,2.1883,,,,,NAN,NAN
5a4636c92f91ec0001dcba07,84.0,Alex,Rej,Participant_Images/5a4636c92f91ec0001dcba07/5a4636c92f91ec0001dcba07_Images/5a4636c92f91ec0001dcba07_Image_11.jpeg,did not like,2.2463,,,,,NAN,NAN
5a4636c92f91ec0001dcba07,,,,,,,c,0.0,1.5179,5.0008,,
5a4636c92f91ec0001dcba07,85.0,Alex,Rej,Participant_Images/5a4636c92f91ec0001dcba07/5a4636c92f91ec0001dcba07_Images/5a4636c92f91ec0001dcba07_Image_4.jpeg,did not like,,,,,,NAN,NAN
5a4636c92f91ec0001dcba07,86.0,Alex,Rej,Participant_Images/5a4636c92f91ec0001dcba07/5a4636c92f91ec0001dcba07_Images/5a4636c92f91ec0001dcba07_Image_7.jpeg,liked,2.232,,,,,NAN,NAN
5a4636c92f91ec0001dcba07,87.0,Alex,Rej,Participant_Images/5a4636c92f91ec0001dcba07/5a4636c92f91ec0001dcba07_Images/5a4636c92f91ec0001dcba07_Image_16.jpeg,did not like,0.9577,,,,,NAN,NAN
5a4636c92f91ec0001dcba07,88.0,Alex,Rej,Participant_Images/5a4636c92f91ec0001dcba07/5a4636c92f91ec0001dcba07_Images/5a4636c92f91ec0001dcba07_Image_14.jpeg,did not like,3.4785,,,,,NAN,NAN
5a4636c92f91ec0001dcba07,89.0,Alex,Rej,Participant_Images/5a4636c92f91ec0001dcba07/5a4636c92f91ec0001dcba07_Images/5a4636c92f91ec0001dcba07_Image_26.jpeg,liked,1.3198,,,,,NAN,NAN
5a4636c92f91ec0001dcba07,,,,,,,c,0.0,1.5597,0.5086,,
5a4636c92f91ec0001dcba07,90.0,Alex,Rej,Participant_Images/5a4636c92f91ec0001dcba07/5a4636c92f91ec0001dcba07_Images/5a4636c92f91ec0001dcba07_Image_17.jpeg,liked,,,,,,1,5
5a4636c92f91ec0001dcba07,91.0,Sam,Acc,Participant_Images/5a4636c92f91ec0001dcba07/5a4636c92f91ec0001dcba07_Images/5a4636c92f91ec0001dcba07_Image_2.jpeg,liked,1.4676,,,,,NAN,NAN
5a4636c92f91ec0001dcba07,92.0,Sam,Acc,Participant_Images/5a4636c92f91ec0001dcba07/5a4636c92f91ec0001dcba07_Images/5a4636c92f91ec0001dcba07_Image_4.jpeg,liked,0.9666,,,,,NAN,NAN
5a4636c92f91ec0001dcba07,93.0,Sam,Acc,Participant_Images/5a4636c92f91ec0001dcba07/5a4636c92f91ec0001dcba07_Images/5a4636c92f91ec0001dcba07_Image_7.jpeg,liked,0.4015,,,,,NAN,NAN
5a4636c92f91ec0001dcba07,94.0,Sam,Acc,Participant_Images/5a4636c92f91ec0001dcba07/5a4636c92f91ec0001dcba07_Images/5a4636c92f91ec0001dcba07_Image_16.jpeg,did not like,0.9457,,,,,NAN,NAN
5a4636c92f91ec0001dcba07,,,,,,,c,0.0,0.7287,2.4028,,
5a4636c92f91ec0001dcba07,95.0,Sam,Acc,Participant_Images/5a4636c92f91ec0001dcba07/5a4636c92f91ec0001dcba07_Images/5a4636c92f91ec0001dcba07_Image_17.jpeg,liked,,,,,,NAN,NAN
5a4636c92f91ec0001dcba07,96.0,Sam,Acc,Participant_Images/5a4636c92f91ec0001dcba07/5a4636c92f91ec0001dcba07_Images/5a4636c92f91ec0001dcba07_Image_11.jpeg,did not like,2.7747,,,,,NAN,NAN
5a4636c92f91ec0001dcba07,97.0,Sam,Acc,Participant_Images/5a4636c92f91ec0001dcba07/5a4636c92f91ec0001dcba07_Images/5a4636c92f91ec0001dcba07_Image_22.jpeg,did not like,2.5669,,,,,NAN,NAN
5a4636c92f91ec0001dcba07,98.0,Sam,Acc,Participant_Images/5a4636c92f91ec0001dcba07/5a4636c92f91ec0001dcba07_Images/5a4636c92f91ec0001dcba07_Image_21.jpeg,liked,2.6323,,,,,NAN,NAN
5a4636c92f91ec0001dcba07,99.0,Sam,Acc,Participant_Images/5a4636c92f91ec0001dcba07/5a4636c92f91ec0001dcba07_Images/5a4636c92f91ec0001dcba07_Image_24.jpeg,did not like,0.7805,,,,,NAN,NAN
5a4636c92f91ec0001dcba07,,,,,,,c,0.0,0.9863,4.462,,
5a4636c92f91ec0001dcba07,100.0,Sam,Acc,Participant_Images/5a4636c92f91ec0001dcba07/5a4636c92f91ec0001dcba07_Images/5a4636c92f91ec0001dcba07_Image_29.jpeg,liked,,,,,,NAN,NAN
5a4636c92f91ec0001dcba07,101.0,Sam,Acc,Participant_Images/5a4636c92f91ec0001dcba07/5a4636c92f91ec0001dcba07_Images/5a4636c92f91ec0001dcba07_Image_8.jpeg,liked,0.656,,,,,NAN,NAN
5a4636c92f91ec0001dcba07,102.0,Sam,Acc,Participant_Images/5a4636c92f91ec0001dcba07/5a4636c92f91ec0001dcba07_Images/5a4636c92f91ec0001dcba07_Image_20.jpeg,liked,0.5987,,,,,NAN,NAN
5a4636c92f91ec0001dcba07,103.0,Sam,Acc,Participant_Images/5a4636c92f91ec0001dcba07/5a4636c92f91ec0001dcba07_Images/5a4636c92f91ec0001dcba07_Image_15.jpeg,liked,1.316,,,,,NAN,NAN
5a4636c92f91ec0001dcba07,104.0,Sam,Acc,Participant_Images/5a4636c92f91ec0001dcba07/5a4636c92f91ec0001dcba07_Images/5a4636c92f91ec0001dcba07_Image_25.jpeg,liked,1.4029,,,,,NAN,NAN
5a4636c92f91ec0001dcba07,,,,,,,c,0.0,2.3625,0.8227,,
5a4636c92f91ec0001dcba07,105.0,Sam,Acc,Participant_Images/5a4636c92f91ec0001dcba07/5a4636c92f91ec0001dcba07_Images/5a4636c92f91ec0001dcba07_Image_30.jpeg,liked,,,,,,NAN,NAN
5a4636c92f91ec0001dcba07,106.0,Sam,Acc,Participant_Images/5a4636c92f91ec0001dcba07/5a4636c92f91ec0001dcba07_Images/5a4636c92f91ec0001dcba07_Image_28.jpeg,liked,0.6549,,,,,NAN,NAN
5a4636c92f91ec0001dcba07,107.0,Sam,Acc,Participant_Images/5a4636c92f91ec0001dcba07/5a4636c92f91ec0001dcba07_Images/5a4636c92f91ec0001dcba07_Image_5.jpeg,did not like,0.6798,,,,,NAN,NAN
5a4636c92f91ec0001dcba07,108.0,Sam,Acc,Participant_Images/5a4636c92f91ec0001dcba07/5a4636c92f91ec0001dcba07_Images/5a4636c92f91ec0001dcba07_Image_6.jpeg,liked,0.7662,,,,,NAN,NAN
5a4636c92f91ec0001dcba07,109.0,Sam,Acc,Participant_Images/5a4636c92f91ec0001dcba07/5a4636c92f91ec0001dcba07_Images/5a4636c92f91ec0001dcba07_Image_19.jpeg,liked,1.1017,,,,,NAN,NAN
5a4636c92f91ec0001dcba07,,,,,,,c,0.0,3.3536,2.6327,,
5a4636c92f91ec0001dcba07,110.0,Sam,Acc,Participant_Images/5a4636c92f91ec0001dcba07/5a4636c92f91ec0001dcba07_Images/5a4636c92f91ec0001dcba07_Image_12.jpeg,liked,,,,,,NAN,NAN
5a4636c92f91ec0001dcba07,111.0,Sam,Acc,Participant_Images/5a4636c92f91ec0001dcba07/5a4636c92f91ec0001dcba07_Images/5a4636c92f91ec0001dcba07_Image_10.jpeg,liked,6.5057,,,,,NAN,NAN
5a4636c92f91ec0001dcba07,112.0,Sam,Acc,Participant_Images/5a4636c92f91ec0001dcba07/5a4636c92f91ec0001dcba07_Images/5a4636c92f91ec0001dcba07_Image_14.jpeg,liked,1.8851,,,,,NAN,NAN
5a4636c92f91ec0001dcba07,113.0,Sam,Acc,Participant_Images/5a4636c92f91ec0001dcba07/5a4636c92f91ec0001dcba07_Images/5a4636c92f91ec0001dcba07_Image_13.jpeg,liked,0.9768,,,,,NAN,NAN
5a4636c92f91ec0001dcba07,114.0,Sam,Acc,Participant_Images/5a4636c92f91ec0001dcba07/5a4636c92f91ec0001dcba07_Images/5a4636c92f91ec0001dcba07_Image_1.jpeg,did not like,0.6527,,,,,NAN,NAN
5a4636c92f91ec0001dcba07,,,,,,,c,0.0,1.2666,1.1221,,
5a4636c92f91ec0001dcba07,115.0,Sam,Acc,Participant_Images/5a4636c92f91ec0001dcba07/5a4636c92f91ec0001dcba07_Images/5a4636c92f91ec0001dcba07_Image_27.jpeg,did not like,,,,,,NAN,NAN
5a4636c92f91ec0001dcba07,116.0,Sam,Acc,Participant_Images/5a4636c92f91ec0001dcba07/5a4636c92f91ec0001dcba07_Images/5a4636c92f91ec0001dcba07_Image_18.jpeg,liked,6.3856,,,,,NAN,NAN
5a4636c92f91ec0001dcba07,117.0,Sam,Acc,Participant_Images/5a4636c92f91ec0001dcba07/5a4636c92f91ec0001dcba07_Images/5a4636c92f91ec0001dcba07_Image_26.jpeg,liked,0.8365,,,,,NAN,NAN
5a4636c92f91ec0001dcba07,118.0,Sam,Acc,Participant_Images/5a4636c92f91ec0001dcba07/5a4636c92f91ec0001dcba07_Images/5a4636c92f91ec0001dcba07_Image_9.jpeg,did not like,0.9345,,,,,NAN,NAN
5a4636c92f91ec0001dcba07,119.0,Sam,Acc,Participant_Images/5a4636c92f91ec0001dcba07/5a4636c92f91ec0001dcba07_Images/5a4636c92f91ec0001dcba07_Image_3.jpeg,did not like,0.8658,,,,,NAN,NAN
5a4636c92f91ec0001dcba07,,,,,,,c,0.0,0.8312,1.3988,,
5a4636c92f91ec0001dcba07,120.0,Sam,Acc,Participant_Images/5a4636c92f91ec0001dcba07/5a4636c92f91ec0001dcba07_Images/5a4636c92f91ec0001dcba07_Image_23.jpeg,liked,,,,,,3,5
5a4636c92f91ec0001dcba07,121.0,Charlie,Acc,Participant_Images/5a4636c92f91ec0001dcba07/5a4636c92f91ec0001dcba07_Images/5a4636c92f91ec0001dcba07_Image_12.jpeg,liked,2.2177,,,,,NAN,NAN
5a4636c92f91ec0001dcba07,122.0,Charlie,Acc,Participant_Images/5a4636c92f91ec0001dcba07/5a4636c92f91ec0001dcba07_Images/5a4636c92f91ec0001dcba07_Image_29.jpeg,liked,0.8668,,,,,NAN,NAN
5a4636c92f91ec0001dcba07,123.0,Charlie,Acc,Participant_Images/5a4636c92f91ec0001dcba07/5a4636c92f91ec0001dcba07_Images/5a4636c92f91ec0001dcba07_Image_23.jpeg,did not like,0.7484,,,,,NAN,NAN
5a4636c92f91ec0001dcba07,124.0,Charlie,Acc,Participant_Images/5a4636c92f91ec0001dcba07/5a4636c92f91ec0001dcba07_Images/5a4636c92f91ec0001dcba07_Image_21.jpeg,liked,1.3962,,,,,NAN,NAN
5a4636c92f91ec0001dcba07,,,,,,,c,0.0,1.6454,0.9874,,
5a4636c92f91ec0001dcba07,125.0,Charlie,Acc,Participant_Images/5a4636c92f91ec0001dcba07/5a4636c92f91ec0001dcba07_Images/5a4636c92f91ec0001dcba07_Image_8.jpeg,did not like,,,,,,NAN,NAN
5a4636c92f91ec0001dcba07,126.0,Charlie,Acc,Participant_Images/5a4636c92f91ec0001dcba07/5a4636c92f91ec0001dcba07_Images/5a4636c92f91ec0001dcba07_Image_9.jpeg,liked,0.6161,,,,,NAN,NAN
5a4636c92f91ec0001dcba07,127.0,Charlie,Acc,Participant_Images/5a4636c92f91ec0001dcba07/5a4636c92f91ec0001dcba07_Images/5a4636c92f91ec0001dcba07_Image_25.jpeg,liked,0.4077,,,,,NAN,NAN
5a4636c92f91ec0001dcba07,128.0,Charlie,Acc,Participant_Images/5a4636c92f91ec0001dcba07/5a4636c92f91ec0001dcba07_Images/5a4636c92f91ec0001dcba07_Image_18.jpeg,liked,0.5524,,,,,NAN,NAN
5a4636c92f91ec0001dcba07,129.0,Charlie,Acc,Participant_Images/5a4636c92f91ec0001dcba07/5a4636c92f91ec0001dcba07_Images/5a4636c92f91ec0001dcba07_Image_11.jpeg,liked,0.4224,,,,,NAN,NAN
5a4636c92f91ec0001dcba07,,,,,,,c,0.0,0.7643,0.5659,,
5a4636c92f91ec0001dcba07,130.0,Charlie,Acc,Participant_Images/5a4636c92f91ec0001dcba07/5a4636c92f91ec0001dcba07_Images/5a4636c92f91ec0001dcba07_Image_7.jpeg,liked,,,,,,NAN,NAN
5a4636c92f91ec0001dcba07,131.0,Charlie,Acc,Participant_Images/5a4636c92f91ec0001dcba07/5a4636c92f91ec0001dcba07_Images/5a4636c92f91ec0001dcba07_Image_16.jpeg,did not like,1.1687,,,,,NAN,NAN
5a4636c92f91ec0001dcba07,132.0,Charlie,Acc,Participant_Images/5a4636c92f91ec0001dcba07/5a4636c92f91ec0001dcba07_Images/5a4636c92f91ec0001dcba07_Image_27.jpeg,liked,2.0337,,,,,NAN,NAN
5a4636c92f91ec0001dcba07,133.0,Charlie,Acc,Participant_Images/5a4636c92f91ec0001dcba07/5a4636c92f91ec0001dcba07_Images/5a4636c92f91ec0001dcba07_Image_6.jpeg,did not like,0.6363,,,,,NAN,NAN
5a4636c92f91ec0001dcba07,134.0,Charlie,Acc,Participant_Images/5a4636c92f91ec0001dcba07/5a4636c92f91ec0001dcba07_Images/5a4636c92f91ec0001dcba07_Image_17.jpeg,did not like,0.534,,,,,NAN,NAN
5a4636c92f91ec0001dcba07,,,,,,,c,0.0,0.8276,0.1642,,
5a4636c92f91ec0001dcba07,135.0,Charlie,Acc,Participant_Images/5a4636c92f91ec0001dcba07/5a4636c92f91ec0001dcba07_Images/5a4636c92f91ec0001dcba07_Image_4.jpeg,liked,,,,,,NAN,NAN
5a4636c92f91ec0001dcba07,136.0,Charlie,Acc,Participant_Images/5a4636c92f91ec0001dcba07/5a4636c92f91ec0001dcba07_Images/5a4636c92f91ec0001dcba07_Image_24.jpeg,liked,0.5218,,,,,NAN,NAN
5a4636c92f91ec0001dcba07,137.0,Charlie,Acc,Participant_Images/5a4636c92f91ec0001dcba07/5a4636c92f91ec0001dcba07_Images/5a4636c92f91ec0001dcba07_Image_1.jpeg,liked,0.6709,,,,,NAN,NAN
5a4636c92f91ec0001dcba07,138.0,Charlie,Acc,Participant_Images/5a4636c92f91ec0001dcba07/5a4636c92f91ec0001dcba07_Images/5a4636c92f91ec0001dcba07_Image_22.jpeg,liked,0.5122,,,,,NAN,NAN
5a4636c92f91ec0001dcba07,139.0,Charlie,Acc,Participant_Images/5a4636c92f91ec0001dcba07/5a4636c92f91ec0001dcba07_Images/5a4636c92f91ec0001dcba07_Image_26.jpeg,liked,0.9203,,,,,NAN,NAN
5a4636c92f91ec0001dcba07,,,,,,,c,0.0,2.0677,3.2616,,
5a4636c92f91ec0001dcba07,140.0,Charlie,Acc,Participant_Images/5a4636c92f91ec0001dcba07/5a4636c92f91ec0001dcba07_Images/5a4636c92f91ec0001dcba07_Image_20.jpeg,liked,,,,,,NAN,NAN
5a4636c92f91ec0001dcba07,141.0,Charlie,Acc,Participant_Images/5a4636c92f91ec0001dcba07/5a4636c92f91ec0001dcba07_Images/5a4636c92f91ec0001dcba07_Image_19.jpeg,did not like,0.893,,,,,NAN,NAN
5a4636c92f91ec0001dcba07,142.0,Charlie,Acc,Participant_Images/5a4636c92f91ec0001dcba07/5a4636c92f91ec0001dcba07_Images/5a4636c92f91ec0001dcba07_Image_13.jpeg,did not like,1.1579,,,,,NAN,NAN
5a4636c92f91ec0001dcba07,143.0,Charlie,Acc,Participant_Images/5a4636c92f91ec0001dcba07/5a4636c92f91ec0001dcba07_Images/5a4636c92f91ec0001dcba07_Image_15.jpeg,liked,0.0369,,,,,NAN,NAN
5a4636c92f91ec0001dcba07,144.0,Charlie,Acc,Participant_Images/5a4636c92f91ec0001dcba07/5a4636c92f91ec0001dcba07_Images/5a4636c92f91ec0001dcba07_Image_30.jpeg,liked,1.1663,,,,,NAN,NAN
5a4636c92f91ec0001dcba07,,,,,,,c,0.0,0.6612,1.7995,,
5a4636c92f91ec0001dcba07,145.0,Charlie,Acc,Participant_Images/5a4636c92f91ec0001dcba07/5a4636c92f91ec0001dcba07_Images/5a4636c92f91ec0001dcba07_Image_5.jpeg,liked,,,,,,NAN,NAN
5a4636c92f91ec0001dcba07,146.0,Charlie,Acc,Participant_Images/5a4636c92f91ec0001dcba07/5a4636c92f91ec0001dcba07_Images/5a4636c92f91ec0001dcba07_Image_3.jpeg,did not like,1.4038,,,,,NAN,NAN
5a4636c92f91ec0001dcba07,147.0,Charlie,Acc,Participant_Images/5a4636c92f91ec0001dcba07/5a4636c92f91ec0001dcba07_Images/5a4636c92f91ec0001dcba07_Image_10.jpeg,liked,1.799,,,,,NAN,NAN
5a4636c92f91ec0001dcba07,148.0,Charlie,Acc,Participant_Images/5a4636c92f91ec0001dcba07/5a4636c92f91ec0001dcba07_Images/5a4636c92f91ec0001dcba07_Image_14.jpeg,did not like,3.5382,,,,,NAN,NAN
5a4636c92f91ec0001dcba07,149.0,Charlie,Acc,Participant_Images/5a4636c92f91ec0001dcba07/5a4636c92f91ec0001dcba07_Images/5a4636c92f91ec0001dcba07_Image_28.jpeg,liked,1.3326,,,,,NAN,NAN
5a4636c92f91ec0001dcba07,,,,,,,c,0.0,3.4156,0.765,,
5a4636c92f91ec0001dcba07,150.0,Charlie,Acc,Participant_Images/5a4636c92f91ec0001dcba07/5a4636c92f91ec0001dcba07_Images/5a4636c92f91ec0001dcba07_Image_2.jpeg,liked,,,,,,3,5
5a4636c92f91ec0001dcba07,,,,,,,,,,,,
5ff27bb4ad8fba794c1b96fa,1.0,Taylor,Acc,Participant_Images/5ff27bb4ad8fba794c1b96fa/5ff27bb4ad8fba794c1b96fa_Images/5ff27bb4ad8fba794c1b96fa_Image_22.jpeg,liked,2.8924,,,,,NAN,NAN
5ff27bb4ad8fba794c1b96fa,2.0,Taylor,Acc,Participant_Images/5ff27bb4ad8fba794c1b96fa/5ff27bb4ad8fba794c1b96fa_Images/5ff27bb4ad8fba794c1b96fa_Image_16.jpeg,liked,0.515,,,,,NAN,NAN
5ff27bb4ad8fba794c1b96fa,3.0,Taylor,Acc,Participant_Images/5ff27bb4ad8fba794c1b96fa/5ff27bb4ad8fba794c1b96fa_Images/5ff27bb4ad8fba794c1b96fa_Image_7.jpeg,did not like,0.6757,,,,,NAN,NAN
5ff27bb4ad8fba794c1b96fa,4.0,Taylor,Acc,Participant_Images/5ff27bb4ad8fba794c1b96fa/5ff27bb4ad8fba794c1b96fa_Images/5ff27bb4ad8fba794c1b96fa_Image_10.jpeg,did not like,0.4689,,,,,NAN,NAN
5ff27bb4ad8fba794c1b96fa,,,,,,,,999.0,,2.2372,,
5ff27bb4ad8fba794c1b96fa,5.0,Taylor,Acc,Participant_Images/5ff27bb4ad8fba794c1b96fa/5ff27bb4ad8fba794c1b96fa_Images/5ff27bb4ad8fba794c1b96fa_Image_28.jpeg,liked,,,,,,NAN,NAN
5ff27bb4ad8fba794c1b96fa,6.0,Taylor,Acc,Participant_Images/5ff27bb4ad8fba794c1b96fa/5ff27bb4ad8fba794c1b96fa_Images/5ff27bb4ad8fba794c1b96fa_Image_19.jpeg,liked,0.4825,,,,,NAN,NAN
5ff27bb4ad8fba794c1b96fa,7.0,Taylor,Acc,Participant_Images/5ff27bb4ad8fba794c1b96fa/5ff27bb4ad8fba794c1b96fa_Images/5ff27bb4ad8fba794c1b96fa_Image_21.jpeg,liked,0.6868,,,,,NAN,NAN
5ff27bb4ad8fba794c1b96fa,8.0,Taylor,Acc,Participant_Images/5ff27bb4ad8fba794c1b96fa/5ff27bb4ad8fba794c1b96fa_Images/5ff27bb4ad8fba794c1b96fa_Image_27.jpeg,did not like,0.6912,,,,,NAN,NAN
5ff27bb4ad8fba794c1b96fa,9.0,Taylor,Acc,Participant_Images/5ff27bb4ad8fba794c1b96fa/5ff27bb4ad8fba794c1b96fa_Images/5ff27bb4ad8fba794c1b96fa_Image_25.jpeg,liked,0.5557,,,,,NAN,NAN
5ff27bb4ad8fba794c1b96fa,,,,,,,c,0.0,1.3622,0.734,,
5ff27bb4ad8fba794c1b96fa,10.0,Taylor,Acc,Participant_Images/5ff27bb4ad8fba794c1b96fa/5ff27bb4ad8fba794c1b96fa_Images/5ff27bb4ad8fba794c1b96fa_Image_20.jpeg,liked,,,,,,NAN,NAN
5ff27bb4ad8fba794c1b96fa,11.0,Taylor,Acc,Participant_Images/5ff27bb4ad8fba794c1b96fa/5ff27bb4ad8fba794c1b96fa_Images/5ff27bb4ad8fba794c1b96fa_Image_18.jpeg,did not like,0.6649,,,,,NAN,NAN
5ff27bb4ad8fba794c1b96fa,12.0,Taylor,Acc,Participant_Images/5ff27bb4ad8fba794c1b96fa/5ff27bb4ad8fba794c1b96fa_Images/5ff27bb4ad8fba794c1b96fa_Image_6.jpeg,liked,0.5845,,,,,NAN,NAN
5ff27bb4ad8fba794c1b96fa,13.0,Taylor,Acc,Participant_Images/5ff27bb4ad8fba794c1b96fa/5ff27bb4ad8fba794c1b96fa_Images/5ff27bb4ad8fba794c1b96fa_Image_30.jpeg,liked,0.3884,,,,,NAN,NAN
5ff27bb4ad8fba794c1b96fa,14.0,Taylor,Acc,Participant_Images/5ff27bb4ad8fba794c1b96fa/5ff27bb4ad8fba794c1b96fa_Images/5ff27bb4ad8fba794c1b96fa_Image_4.jpeg,liked,0.7063,,,,,NAN,NAN
5ff27bb4ad8fba794c1b96fa,,,,,,,c,0.0,1.1754,0.4987,,
5ff27bb4ad8fba794c1b96fa,15.0,Taylor,Acc,Participant_Images/5ff27bb4ad8fba794c1b96fa/5ff27bb4ad8fba794c1b96fa_Images/5ff27bb4ad8fba794c1b96fa_Image_8.jpeg,liked,,,,,,NAN,NAN
5ff27bb4ad8fba794c1b96fa,16.0,Taylor,Acc,Participant_Images/5ff27bb4ad8fba794c1b96fa/5ff27bb4ad8fba794c1b96fa_Images/5ff27bb4ad8fba794c1b96fa_Image_24.jpeg,did not like,0.5837,,,,,NAN,NAN
5ff27bb4ad8fba794c1b96fa,17.0,Taylor,Acc,Participant_Images/5ff27bb4ad8fba794c1b96fa/5ff27bb4ad8fba794c1b96fa_Images/5ff27bb4ad8fba794c1b96fa_Image_1.jpeg,liked,0.5276,,,,,NAN,NAN
5ff27bb4ad8fba794c1b96fa,18.0,Taylor,Acc,Participant_Images/5ff27bb4ad8fba794c1b96fa/5ff27bb4ad8fba794c1b96fa_Images/5ff27bb4ad8fba794c1b96fa_Image_5.jpeg,liked,0.6271,,,,,NAN,NAN
5ff27bb4ad8fba794c1b96fa,19.0,Taylor,Acc,Participant_Images/5ff27bb4ad8fba794c1b96fa/5ff27bb4ad8fba794c1b96fa_Images/5ff27bb4ad8fba794c1b96fa_Image_12.jpeg,did not like,0.4469,,,,,NAN,NAN
5ff27bb4ad8fba794c1b96fa,,,,,,,c,0.0,1.3392,0.3617,,
5ff27bb4ad8fba794c1b96fa,20.0,Taylor,Acc,Participant_Images/5ff27bb4ad8fba794c1b96fa/5ff27bb4ad8fba794c1b96fa_Images/5ff27bb4ad8fba794c1b96fa_Image_3.jpeg,did not like,,,,,,NAN,NAN
5ff27bb4ad8fba794c1b96fa,21.0,Taylor,Acc,Participant_Images/5ff27bb4ad8fba794c1b96fa/5ff27bb4ad8fba794c1b96fa_Images/5ff27bb4ad8fba794c1b96fa_Image_14.jpeg,liked,0.5193,,,,,NAN,NAN
5ff27bb4ad8fba794c1b96fa,22.0,Taylor,Acc,Participant_Images/5ff27bb4ad8fba794c1b96fa/5ff27bb4ad8fba794c1b96fa_Images/5ff27bb4ad8fba794c1b96fa_Image_23.jpeg,liked,0.6557,,,,,NAN,NAN
5ff27bb4ad8fba794c1b96fa,23.0,Taylor,Acc,Participant_Images/5ff27bb4ad8fba794c1b96fa/5ff27bb4ad8fba794c1b96fa_Images/5ff27bb4ad8fba794c1b96fa_Image_11.jpeg,liked,0.5396,,,,,NAN,NAN
5ff27bb4ad8fba794c1b96fa,24.0,Taylor,Acc,Participant_Images/5ff27bb4ad8fba794c1b96fa/5ff27bb4ad8fba794c1b96fa_Images/5ff27bb4ad8fba794c1b96fa_Image_15.jpeg,liked,0.6701,,,,,NAN,NAN
5ff27bb4ad8fba794c1b96fa,,,,,,,c,0.0,2.0903,0.3274,,
5ff27bb4ad8fba794c1b96fa,25.0,Taylor,Acc,Participant_Images/5ff27bb4ad8fba794c1b96fa/5ff27bb4ad8fba794c1b96fa_Images/5ff27bb4ad8fba794c1b96fa_Image_9.jpeg,liked,,,,,,NAN,NAN
5ff27bb4ad8fba794c1b96fa,26.0,Taylor,Acc,Participant_Images/5ff27bb4ad8fba794c1b96fa/5ff27bb4ad8fba794c1b96fa_Images/5ff27bb4ad8fba794c1b96fa_Image_29.jpeg,did not like,0.5683,,,,,NAN,NAN
5ff27bb4ad8fba794c1b96fa,27.0,Taylor,Acc,Participant_Images/5ff27bb4ad8fba794c1b96fa/5ff27bb4ad8fba794c1b96fa_Images/5ff27bb4ad8fba794c1b96fa_Image_17.jpeg,liked,1.0614,,,,,NAN,NAN
5ff27bb4ad8fba794c1b96fa,28.0,Taylor,Acc,Participant_Images/5ff27bb4ad8fba794c1b96fa/5ff27bb4ad8fba794c1b96fa_Images/5ff27bb4ad8fba794c1b96fa_Image_13.jpeg,liked,0.3016,,,,,NAN,NAN
5ff27bb4ad8fba794c1b96fa,29.0,Taylor,Acc,Participant_Images/5ff27bb4ad8fba794c1b96fa/5ff27bb4ad8fba794c1b96fa_Images/5ff27bb4ad8fba794c1b96fa_Image_26.jpeg,liked,0.6929,,,,,NAN,NAN
5ff27bb4ad8fba794c1b96fa,,,,,,,c,0.0,1.2937,0.1909,,
5ff27bb4ad8fba794c1b96fa,30.0,Taylor,Acc,Participant_Images/5ff27bb4ad8fba794c1b96fa/5ff27bb4ad8fba794c1b96fa_Images/5ff27bb4ad8fba794c1b96fa_Image_2.jpeg,did not like,,,,,,3,5
5ff27bb4ad8fba794c1b96fa,31.0,Alex,Rej,Participant_Images/5ff27bb4ad8fba794c1b96fa/5ff27bb4ad8fba794c1b96fa_Images/5ff27bb4ad8fba794c1b96fa_Image_9.jpeg,did not like,0.6083,,,,,NAN,NAN
5ff27bb4ad8fba794c1b96fa,32.0,Alex,Rej,Participant_Images/5ff27bb4ad8fba794c1b96fa/5ff27bb4ad8fba794c1b96fa_Images/5ff27bb4ad8fba794c1b96fa_Image_25.jpeg,did not like,0.6817,,,,,NAN,NAN
5ff27bb4ad8fba794c1b96fa,33.0,Alex,Rej,Participant_Images/5ff27bb4ad8fba794c1b96fa/5ff27bb4ad8fba794c1b96fa_Images/5ff27bb4ad8fba794c1b96fa_Image_13.jpeg,liked,0.5443,,,,,NAN,NAN
5ff27bb4ad8fba794c1b96fa,34.0,Alex,Rej,Participant_Images/5ff27bb4ad8fba794c1b96fa/5ff27bb4ad8fba794c1b96fa_Images/5ff27bb4ad8fba794c1b96fa_Image_6.jpeg,liked,1.2116,,,,,NAN,NAN
5ff27bb4ad8fba794c1b96fa,,,,,,,c,0.0,1.3053,0.5248,,
5ff27bb4ad8fba794c1b96fa,35.0,Alex,Rej,Participant_Images/5ff27bb4ad8fba794c1b96fa/5ff27bb4ad8fba794c1b96fa_Images/5ff27bb4ad8fba794c1b96fa_Image_12.jpeg,liked,,,,,,NAN,NAN
5ff27bb4ad8fba794c1b96fa,36.0,Alex,Rej,Participant_Images/5ff27bb4ad8fba794c1b96fa/5ff27bb4ad8fba794c1b96fa_Images/5ff27bb4ad8fba794c1b96fa_Image_5.jpeg,did not like,0.5598,,,,,NAN,NAN
5ff27bb4ad8fba794c1b96fa,37.0,Alex,Rej,Participant_Images/5ff27bb4ad8fba794c1b96fa/5ff27bb4ad8fba794c1b96fa_Images/5ff27bb4ad8fba794c1b96fa_Image_26.jpeg,did not like,0.8016,,,,,NAN,NAN
5ff27bb4ad8fba794c1b96fa,38.0,Alex,Rej,Participant_Images/5ff27bb4ad8fba794c1b96fa/5ff27bb4ad8fba794c1b96fa_Images/5ff27bb4ad8fba794c1b96fa_Image_19.jpeg,did not like,0.6143,,,,,NAN,NAN
5ff27bb4ad8fba794c1b96fa,39.0,Alex,Rej,Participant_Images/5ff27bb4ad8fba794c1b96fa/5ff27bb4ad8fba794c1b96fa_Images/5ff27bb4ad8fba794c1b96fa_Image_17.jpeg,liked,0.5266,,,,,NAN,NAN
5ff27bb4ad8fba794c1b96fa,,,,,,,c,0.0,1.1947,0.5373,,
5ff27bb4ad8fba794c1b96fa,40.0,Alex,Rej,Participant_Images/5ff27bb4ad8fba794c1b96fa/5ff27bb4ad8fba794c1b96fa_Images/5ff27bb4ad8fba794c1b96fa_Image_14.jpeg,did not like,,,,,,NAN,NAN
5ff27bb4ad8fba794c1b96fa,41.0,Alex,Rej,Participant_Images/5ff27bb4ad8fba794c1b96fa/5ff27bb4ad8fba794c1b96fa_Images/5ff27bb4ad8fba794c1b96fa_Image_28.jpeg,did not like,0.4763,,,,,NAN,NAN
5ff27bb4ad8fba794c1b96fa,42.0,Alex,Rej,Participant_Images/5ff27bb4ad8fba794c1b96fa/5ff27bb4ad8fba794c1b96fa_Images/5ff27bb4ad8fba794c1b96fa_Image_16.jpeg,did not like,0.5984,,,,,NAN,NAN
5ff27bb4ad8fba794c1b96fa,43.0,Alex,Rej,Participant_Images/5ff27bb4ad8fba794c1b96fa/5ff27bb4ad8fba794c1b96fa_Images/5ff27bb4ad8fba794c1b96fa_Image_24.jpeg,did not like,0.5117,,,,,NAN,NAN
5ff27bb4ad8fba794c1b96fa,44.0,Alex,Rej,Participant_Images/5ff27bb4ad8fba794c1b96fa/5ff27bb4ad8fba794c1b96fa_Images/5ff27bb4ad8fba794c1b96fa_Image_1.jpeg,did not like,0.8808,,,,,NAN,NAN
5ff27bb4ad8fba794c1b96fa,,,,,,,c,0.0,1.3938,0.5116,,
5ff27bb4ad8fba794c1b96fa,45.0,Alex,Rej,Participant_Images/5ff27bb4ad8fba794c1b96fa/5ff27bb4ad8fba794c1b96fa_Images/5ff27bb4ad8fba794c1b96fa_Image_10.jpeg,did not like,,,,,,NAN,NAN
5ff27bb4ad8fba794c1b96fa,46.0,Alex,Rej,Participant_Images/5ff27bb4ad8fba794c1b96fa/5ff27bb4ad8fba794c1b96fa_Images/5ff27bb4ad8fba794c1b96fa_Image_11.jpeg,did not like,0.6464,,,,,NAN,NAN
5ff27bb4ad8fba794c1b96fa,47.0,Alex,Rej,Participant_Images/5ff27bb4ad8fba794c1b96fa/5ff27bb4ad8fba794c1b96fa_Images/5ff27bb4ad8fba794c1b96fa_Image_8.jpeg,did not like,0.6868,,,,,NAN,NAN
5ff27bb4ad8fba794c1b96fa,48.0,Alex,Rej,Participant_Images/5ff27bb4ad8fba794c1b96fa/5ff27bb4ad8fba794c1b96fa_Images/5ff27bb4ad8fba794c1b96fa_Image_4.jpeg,liked,0.7771,,,,,NAN,NAN
5ff27bb4ad8fba794c1b96fa,49.0,Alex,Rej,Participant_Images/5ff27bb4ad8fba794c1b96fa/5ff27bb4ad8fba794c1b96fa_Images/5ff27bb4ad8fba794c1b96fa_Image_7.jpeg,liked,0.7842,,,,,NAN,NAN
5ff27bb4ad8fba794c1b96fa,,,,,,,c,0.0,1.5392,0.6565,,
5ff27bb4ad8fba794c1b96fa,50.0,Alex,Rej,Participant_Images/5ff27bb4ad8fba794c1b96fa/5ff27bb4ad8fba794c1b96fa_Images/5ff27bb4ad8fba794c1b96fa_Image_18.jpeg,did not like,,,,,,NAN,NAN
5ff27bb4ad8fba794c1b96fa,51.0,Alex,Rej,Participant_Images/5ff27bb4ad8fba794c1b96fa/5ff27bb4ad8fba794c1b96fa_Images/5ff27bb4ad8fba794c1b96fa_Image_23.jpeg,did not like,0.7746,,,,,NAN,NAN
5ff27bb4ad8fba794c1b96fa,52.0,Alex,Rej,Participant_Images/5ff27bb4ad8fba794c1b96fa/5ff27bb4ad8fba794c1b96fa_Images/5ff27bb4ad8fba794c1b96fa_Image_30.jpeg,did not like,0.4541,,,,,NAN,NAN
5ff27bb4ad8fba794c1b96fa,53.0,Alex,Rej,Participant_Images/5ff27bb4ad8fba794c1b96fa/5ff27bb4ad8fba794c1b96fa_Images/5ff27bb4ad8fba794c1b96fa_Image_21.jpeg,did not like,0.6447,,,,,NAN,NAN
5ff27bb4ad8fba794c1b96fa,54.0,Alex,Rej,Participant_Images/5ff27bb4ad8fba794c1b96fa/5ff27bb4ad8fba794c1b96fa_Images/5ff27bb4ad8fba794c1b96fa_Image_20.jpeg,liked,0.7786,,,,,NAN,NAN
5ff27bb4ad8fba794c1b96fa,,,,,,,c,0.0,1.3279,0.698,,
5ff27bb4ad8fba794c1b96fa,55.0,Alex,Rej,Participant_Images/5ff27bb4ad8fba794c1b96fa/5ff27bb4ad8fba794c1b96fa_Images/5ff27bb4ad8fba794c1b96fa_Image_15.jpeg,did not like,,,,,,NAN,NAN
5ff27bb4ad8fba794c1b96fa,56.0,Alex,Rej,Participant_Images/5ff27bb4ad8fba794c1b96fa/5ff27bb4ad8fba794c1b96fa_Images/5ff27bb4ad8fba794c1b96fa_Image_3.jpeg,liked,0.8155,,,,,NAN,NAN
5ff27bb4ad8fba794c1b96fa,57.0,Alex,Rej,Participant_Images/5ff27bb4ad8fba794c1b96fa/5ff27bb4ad8fba794c1b96fa_Images/5ff27bb4ad8fba794c1b96fa_Image_29.jpeg,liked,0.7733,,,,,NAN,NAN
5ff27bb4ad8fba794c1b96fa,58.0,Alex,Rej,Participant_Images/5ff27bb4ad8fba794c1b96fa/5ff27bb4ad8fba794c1b96fa_Images/5ff27bb4ad8fba794c1b96fa_Image_27.jpeg,did not like,0.6463,,,,,NAN,NAN
5ff27bb4ad8fba794c1b96fa,59.0,Alex,Rej,Participant_Images/5ff27bb4ad8fba794c1b96fa/5ff27bb4ad8fba794c1b96fa_Images/5ff27bb4ad8fba794c1b96fa_Image_2.jpeg,did not like,0.7403,,,,,NAN,NAN
5ff27bb4ad8fba794c1b96fa,,,,,,,c,0.0,1.5453,0.5462,,
5ff27bb4ad8fba794c1b96fa,60.0,Alex,Rej,Participant_Images/5ff27bb4ad8fba794c1b96fa/5ff27bb4ad8fba794c1b96fa_Images/5ff27bb4ad8fba794c1b96fa_Image_22.jpeg,did not like,,,,,,1,7
5ff27bb4ad8fba794c1b96fa,61.0,Sam,Neutral,Participant_Images/5ff27bb4ad8fba794c1b96fa/5ff27bb4ad8fba794c1b96fa_Images/5ff27bb4ad8fba794c1b96fa_Image_20.jpeg,liked,0.6776,,,,,NAN,NAN
5ff27bb4ad8fba794c1b96fa,62.0,Sam,Neutral,Participant_Images/5ff27bb4ad8fba794c1b96fa/5ff27bb4ad8fba794c1b96fa_Images/5ff27bb4ad8fba794c1b96fa_Image_29.jpeg,did not like,0.6865,,,,,NAN,NAN
5ff27bb4ad8fba794c1b96fa,63.0,Sam,Neutral,Participant_Images/5ff27bb4ad8fba794c1b96fa/5ff27bb4ad8fba794c1b96fa_Images/5ff27bb4ad8fba794c1b96fa_Image_6.jpeg,liked,0.7673,,,,,NAN,NAN
5ff27bb4ad8fba794c1b96fa,64.0,Sam,Neutral,Participant_Images/5ff27bb4ad8fba794c1b96fa/5ff27bb4ad8fba794c1b96fa_Images/5ff27bb4ad8fba794c1b96fa_Image_4.jpeg,did not like,0.3336,,,,,NAN,NAN
5ff27bb4ad8fba794c1b96fa,,,,,,,c,0.0,1.3957,0.4153,,
5ff27bb4ad8fba794c1b96fa,65.0,Sam,Neutral,Participant_Images/5ff27bb4ad8fba794c1b96fa/5ff27bb4ad8fba794c1b96fa_Images/5ff27bb4ad8fba794c1b96fa_Image_16.jpeg,did not like,,,,,,NAN,NAN
5ff27bb4ad8fba794c1b96fa,66.0,Sam,Neutral,Participant_Images/5ff27bb4ad8fba794c1b96fa/5ff27bb4ad8fba794c1b96fa_Images/5ff27bb4ad8fba794c1b96fa_Image_26.jpeg,did not like,0.5554,,,,,NAN,NAN
