PROLIFIC_ID,endwelcomescreen_keys.keys,endwelcomescreen_keys.rt,endinstructionscreen_keys.keys,endinstructionscreen_keys.rt,endpartnermatch_keys.keys,endpartnermatch_keys.rt,sharenextphoto_key.keys,sharenextphoto_key.rt,salience_rating,key_resp.keys,stress_level,stresslevel_keypress.keys,entiretaskloop.thisRepN,entiretaskloop.thisTrialN,entiretaskloop.thisN,entiretaskloop.thisIndex,entiretaskloop.ran,TrialNumber,Partner,Condition,Photos,Feedback,FeedbackWait,choice_keys.keys,playlottery,resumeafterlottery_keys.keys,resumeafterlottery_keys.rt,lotteryloop.thisRepN,lotteryloop.thisTrialN,lotteryloop.thisN,lotteryloop.thisIndex,lotteryloop.ran,choice_keys.rt,lotteryguess_keys.keys,end_screen_keys.keys,end_screen_keys.rt
5a4636c92f91ec0001dcba07,space,0.8429,,,,,,,,,,,,,,,,,,,,,,,,,,,,,,,,,,
5a4636c92f91ec0001dcba07,,,,,,,,,,,,,,,,,,,,,,,,,,,,,,,,,,,,
5a4636c92f91ec0001dcba07,,,space,1.0427,,,,,,,,,,,,,,,,,,,,,,,,,,,,,,,,
5a4636c92f91ec0001dcba07,,,,,space,5.4302,space,0.8896,NAN,,NAN,,0.0,0.0,0.0,0.0,1.0,1.0,Taylor,Rej,Participant_Images/5a4636c92f91ec0001dcba07/5a4636c92f91ec0001dcba07_Images/5a4636c92f91ec0001dcba07_Image_15.jpeg,liked,3.613205605,,,,,,,,,,,,,
5a4636c92f91ec0001dcba07,,,,,,,space,3.385,NAN,,NAN,,0.0,1.0,1.0,1.0,1.0,2.0,Taylor,Rej,Participant_Images/5a4636c92f91ec0001dcba07/5a4636c92f91ec0001dcba07_Images/5a4636c92f91ec0001dcba07_Image_12.jpeg,did not like,4.988446431,,,,,,,,,,,,,
5a4636c92f91ec0001dcba07,,,,,,,space,0.8186,NAN,,NAN,,0.0,2.0,2.0,2.0,1.0,3.0,Taylor,Rej,Participant_Images/5a4636c92f91ec0001dcba07/5a4636c92f91ec0001dcba07_Images/5a4636c92f91ec0001dcba07_Image_2.jpeg,did not like,3.470791822,,,,,,,,,,,,,
5a4636c92f91ec0001dcba07,,,,,,,space,0.8321,NAN,,NAN,,0.0,3.0,3.0,3.0,1.0,4.0,Taylor,Rej,Participant_Images/5a4636c92f91ec0001dcba07/5a4636c92f91ec0001dcba07_Images/5a4636c92f91ec0001dcba07_Image_11.jpeg,did not like,3.820572462,,,,,,,,,,,,,
5a4636c92f91ec0001dcba07,,,,,,,,,,,,,,,,,,,,,,,,,999.0,space,2.77,0.0,0.0,0.0,0.0,1.0,,,,
5a4636c92f91ec0001dcba07,,,,,,,,,NAN,,NAN,,0.0,4.0,4.0,4.0,1.0,5.0,Taylor,Rej,Participant_Images/5a4636c92f91ec0001dcba07/5a4636c92f91ec0001dcba07_Images/5a4636c92f91ec0001dcba07_Image_30.jpeg,did not like,2.455989137,,,,,,,,,,,,,
5a4636c92f91ec0001dcba07,,,,,,,space,1.4235,NAN,,NAN,,0.0,5.0,5.0,5.0,1.0,6.0,Taylor,Rej,Participant_Images/5a4636c92f91ec0001dcba07/5a4636c92f91ec0001dcba07_Images/5a4636c92f91ec0001dcba07_Image_24.jpeg,liked,3.79605092,,,,,,,,,,,,,
5a4636c92f91ec0001dcba07,,,,,,,space,0.5575,NAN,,NAN,,0.0,6.0,6.0,6.0,1.0,7.0,Taylor,Rej,Participant_Images/5a4636c92f91ec0001dcba07/5a4636c92f91ec0001dcba07_Images/5a4636c92f91ec0001dcba07_Image_6.jpeg,did not like,3.562416326,,,,,,,,,,,,,
5a4636c92f91ec0001dcba07,,,,,,,space,0.4915,NAN,,NAN,,0.0,7.0,7.0,7.0,1.0,8.0,Taylor,Rej,Participant_Images/5a4636c92f91ec0001dcba07/5a4636c92f91ec0001dcba07_Images/5a4636c92f91ec0001dcba07_Image_25.jpeg,liked,2.843822497,,,,,,,,,,,,,
5a4636c92f91ec0001dcba07,,,,,,,space,0.3569,NAN,,NAN,,0.0,8.0,8.0,8.0,1.0,9.0,Taylor,Rej,Participant_Images/5a4636c92f91ec0001dcba07/5a4636c92f91ec0001dcba07_Images/5a4636c92f91ec0001dcba07_Image_17.jpeg,liked,3.546495948,,,,,,,,,,,,,
5a4636c92f91ec0001dcba07,,,,,,,,,,,,,,,,,,,,,,,,c,0.0,space,0.8565,0.0,0.0,0.0,0.0,1.0,1.4358,,,
5a4636c92f91ec0001dcba07,,,,,,,,,NAN,,NAN,,0.0,9.0,9.0,9.0,1.0,10.0,Taylor,Rej,Participant_Images/5a4636c92f91ec0001dcba07/5a4636c92f91ec0001dcba07_Images/5a4636c92f91ec0001dcba07_Image_26.jpeg,did not like,1.672012706,,,,,,,,,,,,,
5a4636c92f91ec0001dcba07,,,,,,,space,0.3395,NAN,,NAN,,0.0,10.0,10.0,10.0,1.0,11.0,Taylor,Rej,Participant_Images/5a4636c92f91ec0001dcba07/5a4636c92f91ec0001dcba07_Images/5a4636c92f91ec0001dcba07_Image_13.jpeg,did not like,4.942172136,,,,,,,,,,,,,
5a4636c92f91ec0001dcba07,,,,,,,space,0.5671,NAN,,NAN,,0.0,11.0,11.0,11.0,1.0,12.0,Taylor,Rej,Participant_Images/5a4636c92f91ec0001dcba07/5a4636c92f91ec0001dcba07_Images/5a4636c92f91ec0001dcba07_Image_5.jpeg,did not like,2.50187214,,,,,,,,,,,,,
5a4636c92f91ec0001dcba07,,,,,,,space,0.5997,NAN,,NAN,,0.0,12.0,12.0,12.0,1.0,13.0,Taylor,Rej,Participant_Images/5a4636c92f91ec0001dcba07/5a4636c92f91ec0001dcba07_Images/5a4636c92f91ec0001dcba07_Image_14.jpeg,did not like,2.071164779,,,,,,,,,,,,,
5a4636c92f91ec0001dcba07,,,,,,,space,0.6623,NAN,,NAN,,0.0,13.0,13.0,13.0,1.0,14.0,Taylor,Rej,Participant_Images/5a4636c92f91ec0001dcba07/5a4636c92f91ec0001dcba07_Images/5a4636c92f91ec0001dcba07_Image_7.jpeg,did not like,5.336503566,,,,,,,,,,,,,
5a4636c92f91ec0001dcba07,,,,,,,,,,,,,,,,,,,,,,,,s,1.0,space,0.6854,0.0,0.0,0.0,0.0,1.0,1.7838,,,
5a4636c92f91ec0001dcba07,,,,,,,,,NAN,,NAN,,0.0,14.0,14.0,14.0,1.0,15.0,Taylor,Rej,Participant_Images/5a4636c92f91ec0001dcba07/5a4636c92f91ec0001dcba07_Images/5a4636c92f91ec0001dcba07_Image_10.jpeg,did not like,2.642157193,,,,,,,,,,,,,
5a4636c92f91ec0001dcba07,,,,,,,space,0.4039,NAN,,NAN,,0.0,15.0,15.0,15.0,1.0,16.0,Taylor,Rej,Participant_Images/5a4636c92f91ec0001dcba07/5a4636c92f91ec0001dcba07_Images/5a4636c92f91ec0001dcba07_Image_23.jpeg,did not like,4.456234322,,,,,,,,,,,,,
5a4636c92f91ec0001dcba07,,,,,,,space,0.4698,NAN,,NAN,,0.0,16.0,16.0,16.0,1.0,17.0,Taylor,Rej,Participant_Images/5a4636c92f91ec0001dcba07/5a4636c92f91ec0001dcba07_Images/5a4636c92f91ec0001dcba07_Image_27.jpeg,did not like,4.438512181,,,,,,,,,,,,,
5a4636c92f91ec0001dcba07,,,,,,,space,0.6177,NAN,,NAN,,0.0,17.0,17.0,17.0,1.0,18.0,Taylor,Rej,Participant_Images/5a4636c92f91ec0001dcba07/5a4636c92f91ec0001dcba07_Images/5a4636c92f91ec0001dcba07_Image_19.jpeg,did not like,2.682944783,,,,,,,,,,,,,
5a4636c92f91ec0001dcba07,,,,,,,space,0.3228,NAN,,NAN,,0.0,18.0,18.0,18.0,1.0,19.0,Taylor,Rej,Participant_Images/5a4636c92f91ec0001dcba07/5a4636c92f91ec0001dcba07_Images/5a4636c92f91ec0001dcba07_Image_28.jpeg,liked,4.51984296,,,,,,,,,,,,,
5a4636c92f91ec0001dcba07,,,,,,,,,,,,,,,,,,,,,,,,c,0.0,space,0.8304,0.0,0.0,0.0,0.0,1.0,0.9998,,,
5a4636c92f91ec0001dcba07,,,,,,,,,NAN,,NAN,,0.0,19.0,19.0,19.0,1.0,20.0,Taylor,Rej,Participant_Images/5a4636c92f91ec0001dcba07/5a4636c92f91ec0001dcba07_Images/5a4636c92f91ec0001dcba07_Image_20.jpeg,did not like,3.195382774,,,,,,,,,,,,,
5a4636c92f91ec0001dcba07,,,,,,,space,1.0197,NAN,,NAN,,0.0,20.0,20.0,20.0,1.0,21.0,Taylor,Rej,Participant_Images/5a4636c92f91ec0001dcba07/5a4636c92f91ec0001dcba07_Images/5a4636c92f91ec0001dcba07_Image_18.jpeg,did not like,1.779333479,,,,,,,,,,,,,
5a4636c92f91ec0001dcba07,,,,,,,space,0.5245,NAN,,NAN,,0.0,21.0,21.0,21.0,1.0,22.0,Taylor,Rej,Participant_Images/5a4636c92f91ec0001dcba07/5a4636c92f91ec0001dcba07_Images/5a4636c92f91ec0001dcba07_Image_29.jpeg,did not like,4.312468682,,,,,,,,,,,,,
5a4636c92f91ec0001dcba07,,,,,,,space,0.6359,NAN,,NAN,,0.0,22.0,22.0,22.0,1.0,23.0,Taylor,Rej,Participant_Images/5a4636c92f91ec0001dcba07/5a4636c92f91ec0001dcba07_Images/5a4636c92f91ec0001dcba07_Image_4.jpeg,liked,4.940433059,,,,,,,,,,,,,
5a4636c92f91ec0001dcba07,,,,,,,space,0.6746,NAN,,NAN,,0.0,23.0,23.0,23.0,1.0,24.0,Taylor,Rej,Participant_Images/5a4636c92f91ec0001dcba07/5a4636c92f91ec0001dcba07_Images/5a4636c92f91ec0001dcba07_Image_22.jpeg,liked,2.7105123,,,,,,,,,,,,,
5a4636c92f91ec0001dcba07,,,,,,,,,,,,,,,,,,,,,,,,c,0.0,space,0.559,0.0,0.0,0.0,0.0,1.0,0.9745,,,
5a4636c92f91ec0001dcba07,,,,,,,,,NAN,,NAN,,0.0,24.0,24.0,24.0,1.0,25.0,Taylor,Rej,Participant_Images/5a4636c92f91ec0001dcba07/5a4636c92f91ec0001dcba07_Images/5a4636c92f91ec0001dcba07_Image_21.jpeg,liked,3.602308302,,,,,,,,,,,,,
5a4636c92f91ec0001dcba07,,,,,,,space,0.7745,NAN,,NAN,,0.0,25.0,25.0,25.0,1.0,26.0,Taylor,Rej,Participant_Images/5a4636c92f91ec0001dcba07/5a4636c92f91ec0001dcba07_Images/5a4636c92f91ec0001dcba07_Image_3.jpeg,did not like,4.106391878,,,,,,,,,,,,,
5a4636c92f91ec0001dcba07,,,,,,,space,0.5575,NAN,,NAN,,0.0,26.0,26.0,26.0,1.0,27.0,Taylor,Rej,Participant_Images/5a4636c92f91ec0001dcba07/5a4636c92f91ec0001dcba07_Images/5a4636c92f91ec0001dcba07_Image_1.jpeg,did not like,3.799433026,,,,,,,,,,,,,
5a4636c92f91ec0001dcba07,,,,,,,space,0.7463,NAN,,NAN,,0.0,27.0,27.0,27.0,1.0,28.0,Taylor,Rej,Participant_Images/5a4636c92f91ec0001dcba07/5a4636c92f91ec0001dcba07_Images/5a4636c92f91ec0001dcba07_Image_16.jpeg,liked,5.246980764,,,,,,,,,,,,,
5a4636c92f91ec0001dcba07,,,,,,,space,0.7111,NAN,,NAN,,0.0,28.0,28.0,28.0,1.0,29.0,Taylor,Rej,Participant_Images/5a4636c92f91ec0001dcba07/5a4636c92f91ec0001dcba07_Images/5a4636c92f91ec0001dcba07_Image_9.jpeg,did not like,3.30081769,,,,,,,,,,,,,
5a4636c92f91ec0001dcba07,,,,,,,,,,,,,,,,,,,,,,,,c,0.0,space,0.6248,0.0,0.0,0.0,0.0,1.0,0.9504,,,
5a4636c92f91ec0001dcba07,,,,,,,,,2,,6,,0.0,29.0,29.0,29.0,1.0,30.0,Taylor,Rej,Participant_Images/5a4636c92f91ec0001dcba07/5a4636c92f91ec0001dcba07_Images/5a4636c92f91ec0001dcba07_Image_8.jpeg,did not like,1.661473164,,,,,,,,,,,,,
5a4636c92f91ec0001dcba07,,,,,space,1.5346,space,1.0415,NAN,,NAN,,0.0,30.0,30.0,30.0,1.0,31.0,Riley,Neutral,Participant_Images/5a4636c92f91ec0001dcba07/5a4636c92f91ec0001dcba07_Images/5a4636c92f91ec0001dcba07_Image_15.jpeg,liked,3.613205605,,,,,,,,,,,,,
5a4636c92f91ec0001dcba07,,,,,,,space,1.5179,NAN,,NAN,,0.0,31.0,31.0,31.0,1.0,32.0,Riley,Neutral,Participant_Images/5a4636c92f91ec0001dcba07/5a4636c92f91ec0001dcba07_Images/5a4636c92f91ec0001dcba07_Image_25.jpeg,did not like,4.988446431,,,,,,,,,,,,,
5a4636c92f91ec0001dcba07,,,,,,,space,0.9752,NAN,,NAN,,0.0,32.0,32.0,32.0,1.0,33.0,Riley,Neutral,Participant_Images/5a4636c92f91ec0001dcba07/5a4636c92f91ec0001dcba07_Images/5a4636c92f91ec0001dcba07_Image_27.jpeg,did not like,3.470791822,,,,,,,,,,,,,
5a4636c92f91ec0001dcba07,,,,,,,space,0.6201,NAN,,NAN,,0.0,33.0,33.0,33.0,1.0,34.0,Riley,Neutral,Participant_Images/5a4636c92f91ec0001dcba07/5a4636c92f91ec0001dcba07_Images/5a4636c92f91ec0001dcba07_Image_19.jpeg,did not like,3.820572462,,,,,,,,,,,,,
5a4636c92f91ec0001dcba07,,,,,,,,,,,,,,,,,,,,,,,,c,0.0,space,0.6285,0.0,0.0,0.0,0.0,1.0,0.7285,,,
5a4636c92f91ec0001dcba07,,,,,,,,,NAN,,NAN,,0.0,34.0,34.0,34.0,1.0,35.0,Riley,Neutral,Participant_Images/5a4636c92f91ec0001dcba07/5a4636c92f91ec0001dcba07_Images/5a4636c92f91ec0001dcba07_Image_18.jpeg,did not like,2.455989137,,,,,,,,,,,,,
5a4636c92f91ec0001dcba07,,,,,,,space,0.174,NAN,,NAN,,0.0,35.0,35.0,35.0,1.0,36.0,Riley,Neutral,Participant_Images/5a4636c92f91ec0001dcba07/5a4636c92f91ec0001dcba07_Images/5a4636c92f91ec0001dcba07_Image_9.jpeg,did not like,3.79605092,,,,,,,,,,,,,
5a4636c92f91ec0001dcba07,,,,,,,space,0.7509,NAN,,NAN,,0.0,36.0,36.0,36.0,1.0,37.0,Riley,Neutral,Participant_Images/5a4636c92f91ec0001dcba07/5a4636c92f91ec0001dcba07_Images/5a4636c92f91ec0001dcba07_Image_24.jpeg,liked,3.562416326,,,,,,,,,,,,,
5a4636c92f91ec0001dcba07,,,,,,,space,0.6693,NAN,,NAN,,0.0,37.0,37.0,37.0,1.0,38.0,Riley,Neutral,Participant_Images/5a4636c92f91ec0001dcba07/5a4636c92f91ec0001dcba07_Images/5a4636c92f91ec0001dcba07_Image_7.jpeg,did not like,2.843822497,,,,,,,,,,,,,
5a4636c92f91ec0001dcba07,,,,,,,space,0.7577,NAN,,NAN,,0.0,38.0,38.0,38.0,1.0,39.0,Riley,Neutral,Participant_Images/5a4636c92f91ec0001dcba07/5a4636c92f91ec0001dcba07_Images/5a4636c92f91ec0001dcba07_Image_26.jpeg,liked,3.546495948,,,,,,,,,,,,,
5a4636c92f91ec0001dcba07,,,,,,,,,,,,,,,,,,,,,,,,c,0.0,space,1.0796,0.0,0.0,0.0,0.0,1.0,0.6978,,,
5a4636c92f91ec0001dcba07,,,,,,,,,NAN,,NAN,,0.0,39.0,39.0,39.0,1.0,40.0,Riley,Neutral,Participant_Images/5a4636c92f91ec0001dcba07/5a4636c92f91ec0001dcba07_Images/5a4636c92f91ec0001dcba07_Image_17.jpeg,did not like,1.672012706,,,,,,,,,,,,,
5a4636c92f91ec0001dcba07,,,,,,,space,1.602,NAN,,NAN,,0.0,40.0,40.0,40.0,1.0,41.0,Riley,Neutral,Participant_Images/5a4636c92f91ec0001dcba07/5a4636c92f91ec0001dcba07_Images/5a4636c92f91ec0001dcba07_Image_20.jpeg,liked,4.942172136,,,,,,,,,,,,,
5a4636c92f91ec0001dcba07,,,,,,,space,0.9008,NAN,,NAN,,0.0,41.0,41.0,41.0,1.0,42.0,Riley,Neutral,Participant_Images/5a4636c92f91ec0001dcba07/5a4636c92f91ec0001dcba07_Images/5a4636c92f91ec0001dcba07_Image_5.jpeg,liked,2.50187214,,,,,,,,,,,,,
5a4636c92f91ec0001dcba07,,,,,,,space,1.5939,NAN,,NAN,,0.0,42.0,42.0,42.0,1.0,43.0,Riley,Neutral,Participant_Images/5a4636c92f91ec0001dcba07/5a4636c92f91ec0001dcba07_Images/5a4636c92f91ec0001dcba07_Image_16.jpeg,liked,2.071164779,,,,,,,,,,,,,
5a4636c92f91ec0001dcba07,,,,,,,space,3.0223,NAN,,NAN,,0.0,43.0,43.0,43.0,1.0,44.0,Riley,Neutral,Participant_Images/5a4636c92f91ec0001dcba07/5a4636c92f91ec0001dcba07_Images/5a4636c92f91ec0001dcba07_Image_14.jpeg,liked,5.336503566,,,,,,,,,,,,,
5a4636c92f91ec0001dcba07,,,,,,,,,,,,,,,,,,,,,,,,c,0.0,space,0.9691,0.0,0.0,0.0,0.0,1.0,1.1949,,,
5a4636c92f91ec0001dcba07,,,,,,,,,NAN,,NAN,,0.0,44.0,44.0,44.0,1.0,45.0,Riley,Neutral,Participant_Images/5a4636c92f91ec0001dcba07/5a4636c92f91ec0001dcba07_Images/5a4636c92f91ec0001dcba07_Image_28.jpeg,did not like,2.642157193,,,,,,,,,,,,,
5a4636c92f91ec0001dcba07,,,,,,,space,0.6686,NAN,,NAN,,0.0,45.0,45.0,45.0,1.0,46.0,Riley,Neutral,Participant_Images/5a4636c92f91ec0001dcba07/5a4636c92f91ec0001dcba07_Images/5a4636c92f91ec0001dcba07_Image_10.jpeg,liked,4.456234322,,,,,,,,,,,,,
5a4636c92f91ec0001dcba07,,,,,,,space,0.5476,NAN,,NAN,,0.0,46.0,46.0,46.0,1.0,47.0,Riley,Neutral,Participant_Images/5a4636c92f91ec0001dcba07/5a4636c92f91ec0001dcba07_Images/5a4636c92f91ec0001dcba07_Image_1.jpeg,did not like,4.438512181,,,,,,,,,,,,,
5a4636c92f91ec0001dcba07,,,,,,,space,0.6019,NAN,,NAN,,0.0,47.0,47.0,47.0,1.0,48.0,Riley,Neutral,Participant_Images/5a4636c92f91ec0001dcba07/5a4636c92f91ec0001dcba07_Images/5a4636c92f91ec0001dcba07_Image_3.jpeg,did not like,2.682944783,,,,,,,,,,,,,
5a4636c92f91ec0001dcba07,,,,,,,space,0.6677,NAN,,NAN,,0.0,48.0,48.0,48.0,1.0,49.0,Riley,Neutral,Participant_Images/5a4636c92f91ec0001dcba07/5a4636c92f91ec0001dcba07_Images/5a4636c92f91ec0001dcba07_Image_22.jpeg,did not like,4.51984296,,,,,,,,,,,,,
5a4636c92f91ec0001dcba07,,,,,,,,,,,,,,,,,,,,,,,,c,0.0,space,0.6465,0.0,0.0,0.0,0.0,1.0,0.8819,,,
5a4636c92f91ec0001dcba07,,,,,,,,,NAN,,NAN,,0.0,49.0,49.0,49.0,1.0,50.0,Riley,Neutral,Participant_Images/5a4636c92f91ec0001dcba07/5a4636c92f91ec0001dcba07_Images/5a4636c92f91ec0001dcba07_Image_8.jpeg,liked,3.195382774,,,,,,,,,,,,,
5a4636c92f91ec0001dcba07,,,,,,,space,1.5094,NAN,,NAN,,0.0,50.0,50.0,50.0,1.0,51.0,Riley,Neutral,Participant_Images/5a4636c92f91ec0001dcba07/5a4636c92f91ec0001dcba07_Images/5a4636c92f91ec0001dcba07_Image_6.jpeg,did not like,1.779333479,,,,,,,,,,,,,
5a4636c92f91ec0001dcba07,,,,,,,space,0.651,NAN,,NAN,,0.0,51.0,51.0,51.0,1.0,52.0,Riley,Neutral,Participant_Images/5a4636c92f91ec0001dcba07/5a4636c92f91ec0001dcba07_Images/5a4636c92f91ec0001dcba07_Image_29.jpeg,liked,4.312468682,,,,,,,,,,,,,
5a4636c92f91ec0001dcba07,,,,,,,space,0.6195,NAN,,NAN,,0.0,52.0,52.0,52.0,1.0,53.0,Riley,Neutral,Participant_Images/5a4636c92f91ec0001dcba07/5a4636c92f91ec0001dcba07_Images/5a4636c92f91ec0001dcba07_Image_30.jpeg,liked,4.940433059,,,,,,,,,,,,,
5a4636c92f91ec0001dcba07,,,,,,,space,0.9179,NAN,,NAN,,0.0,53.0,53.0,53.0,1.0,54.0,Riley,Neutral,Participant_Images/5a4636c92f91ec0001dcba07/5a4636c92f91ec0001dcba07_Images/5a4636c92f91ec0001dcba07_Image_4.jpeg,liked,2.7105123,,,,,,,,,,,,,
5a4636c92f91ec0001dcba07,,,,,,,,,,,,,,,,,,,,,,,,c,0.0,space,0.8862,0.0,0.0,0.0,0.0,1.0,1.569,,,
5a4636c92f91ec0001dcba07,,,,,,,,,NAN,,NAN,,0.0,54.0,54.0,54.0,1.0,55.0,Riley,Neutral,Participant_Images/5a4636c92f91ec0001dcba07/5a4636c92f91ec0001dcba07_Images/5a4636c92f91ec0001dcba07_Image_23.jpeg,liked,3.602308302,,,,,,,,,,,,,
5a4636c92f91ec0001dcba07,,,,,,,space,1.2355,NAN,,NAN,,0.0,55.0,55.0,55.0,1.0,56.0,Riley,Neutral,Participant_Images/5a4636c92f91ec0001dcba07/5a4636c92f91ec0001dcba07_Images/5a4636c92f91ec0001dcba07_Image_12.jpeg,did not like,4.106391878,,,,,,,,,,,,,
5a4636c92f91ec0001dcba07,,,,,,,space,0.7035,NAN,,NAN,,0.0,56.0,56.0,56.0,1.0,57.0,Riley,Neutral,Participant_Images/5a4636c92f91ec0001dcba07/5a4636c92f91ec0001dcba07_Images/5a4636c92f91ec0001dcba07_Image_21.jpeg,did not like,3.799433026,,,,,,,,,,,,,
5a4636c92f91ec0001dcba07,,,,,,,space,0.97,NAN,,NAN,,0.0,57.0,57.0,57.0,1.0,58.0,Riley,Neutral,Participant_Images/5a4636c92f91ec0001dcba07/5a4636c92f91ec0001dcba07_Images/5a4636c92f91ec0001dcba07_Image_13.jpeg,did not like,5.246980764,,,,,,,,,,,,,
5a4636c92f91ec0001dcba07,,,,,,,space,4.2371,NAN,,NAN,,0.0,58.0,58.0,58.0,1.0,59.0,Riley,Neutral,Participant_Images/5a4636c92f91ec0001dcba07/5a4636c92f91ec0001dcba07_Images/5a4636c92f91ec0001dcba07_Image_2.jpeg,liked,3.30081769,,,,,,,,,,,,,
5a4636c92f91ec0001dcba07,,,,,,,,,,,,,,,,,,,,,,,,c,0.0,space,0.9036,0.0,0.0,0.0,0.0,1.0,0.6741,,,
5a4636c92f91ec0001dcba07,,,,,,,,,3,,6,,0.0,59.0,59.0,59.0,1.0,60.0,Riley,Neutral,Participant_Images/5a4636c92f91ec0001dcba07/5a4636c92f91ec0001dcba07_Images/5a4636c92f91ec0001dcba07_Image_11.jpeg,liked,1.661473164,,,,,,,,,,,,,
5a4636c92f91ec0001dcba07,,,,,space,3.947,space,0.8343,NAN,,NAN,,0.0,60.0,60.0,60.0,1.0,61.0,Alex,Rej,Participant_Images/5a4636c92f91ec0001dcba07/5a4636c92f91ec0001dcba07_Images/5a4636c92f91ec0001dcba07_Image_18.jpeg,liked,3.613205605,,,,,,,,,,,,,
5a4636c92f91ec0001dcba07,,,,,,,space,0.951,NAN,,NAN,,0.0,61.0,61.0,61.0,1.0,62.0,Alex,Rej,Participant_Images/5a4636c92f91ec0001dcba07/5a4636c92f91ec0001dcba07_Images/5a4636c92f91ec0001dcba07_Image_15.jpeg,liked,4.988446431,,,,,,,,,,,,,
5a4636c92f91ec0001dcba07,,,,,,,space,1.9487,NAN,,NAN,,0.0,62.0,62.0,62.0,1.0,63.0,Alex,Rej,Participant_Images/5a4636c92f91ec0001dcba07/5a4636c92f91ec0001dcba07_Images/5a4636c92f91ec0001dcba07_Image_1.jpeg,did not like,3.470791822,,,,,,,,,,,,,
5a4636c92f91ec0001dcba07,,,,,,,space,0.6952,NAN,,NAN,,0.0,63.0,63.0,63.0,1.0,64.0,Alex,Rej,Participant_Images/5a4636c92f91ec0001dcba07/5a4636c92f91ec0001dcba07_Images/5a4636c92f91ec0001dcba07_Image_9.jpeg,did not like,3.820572462,,,,,,,,,,,,,
5a4636c92f91ec0001dcba07,,,,,,,,,,,,,,,,,,,,,,,,c,0.0,space,0.8599,0.0,0.0,0.0,0.0,1.0,1.3785,,,
5a4636c92f91ec0001dcba07,,,,,,,,,NAN,,NAN,,0.0,64.0,64.0,64.0,1.0,65.0,Alex,Rej,Participant_Images/5a4636c92f91ec0001dcba07/5a4636c92f91ec0001dcba07_Images/5a4636c92f91ec0001dcba07_Image_12.jpeg,did not like,2.455989137,,,,,,,,,,,,,
5a4636c92f91ec0001dcba07,,,,,,,space,1.4344,NAN,,NAN,,0.0,65.0,65.0,65.0,1.0,66.0,Alex,Rej,Participant_Images/5a4636c92f91ec0001dcba07/5a4636c92f91ec0001dcba07_Images/5a4636c92f91ec0001dcba07_Image_8.jpeg,did not like,3.79605092,,,,,,,,,,,,,
5a4636c92f91ec0001dcba07,,,,,,,space,0.9007,NAN,,NAN,,0.0,66.0,66.0,66.0,1.0,67.0,Alex,Rej,Participant_Images/5a4636c92f91ec0001dcba07/5a4636c92f91ec0001dcba07_Images/5a4636c92f91ec0001dcba07_Image_5.jpeg,liked,3.562416326,,,,,,,,,,,,,
5a4636c92f91ec0001dcba07,,,,,,,space,0.6671,NAN,,NAN,,0.0,67.0,67.0,67.0,1.0,68.0,Alex,Rej,Participant_Images/5a4636c92f91ec0001dcba07/5a4636c92f91ec0001dcba07_Images/5a4636c92f91ec0001dcba07_Image_6.jpeg,did not like,2.843822497,,,,,,,,,,,,,
5a4636c92f91ec0001dcba07,,,,,,,space,1.2529,NAN,,NAN,,0.0,68.0,68.0,68.0,1.0,69.0,Alex,Rej,Participant_Images/5a4636c92f91ec0001dcba07/5a4636c92f91ec0001dcba07_Images/5a4636c92f91ec0001dcba07_Image_24.jpeg,did not like,3.546495948,,,,,,,,,,,,,
5a4636c92f91ec0001dcba07,,,,,,,,,,,,,,,,,,,,,,,,c,0.0,space,1.0503,0.0,0.0,0.0,0.0,1.0,1.002,,,
5a4636c92f91ec0001dcba07,,,,,,,,,NAN,,NAN,,0.0,69.0,69.0,69.0,1.0,70.0,Alex,Rej,Participant_Images/5a4636c92f91ec0001dcba07/5a4636c92f91ec0001dcba07_Images/5a4636c92f91ec0001dcba07_Image_29.jpeg,liked,1.672012706,,,,,,,,,,,,,
5a4636c92f91ec0001dcba07,,,,,,,space,0.8185,NAN,,NAN,,0.0,70.0,70.0,70.0,1.0,71.0,Alex,Rej,Participant_Images/5a4636c92f91ec0001dcba07/5a4636c92f91ec0001dcba07_Images/5a4636c92f91ec0001dcba07_Image_19.jpeg,did not like,4.942172136,,,,,,,,,,,,,
5a4636c92f91ec0001dcba07,,,,,,,space,0.8173,NAN,,NAN,,0.0,71.0,71.0,71.0,1.0,72.0,Alex,Rej,Participant_Images/5a4636c92f91ec0001dcba07/5a4636c92f91ec0001dcba07_Images/5a4636c92f91ec0001dcba07_Image_27.jpeg,did not like,2.50187214,,,,,,,,,,,,,
5a4636c92f91ec0001dcba07,,,,,,,space,1.5628,NAN,,NAN,,0.0,72.0,72.0,72.0,1.0,73.0,Alex,Rej,Participant_Images/5a4636c92f91ec0001dcba07/5a4636c92f91ec0001dcba07_Images/5a4636c92f91ec0001dcba07_Image_25.jpeg,did not like,2.071164779,,,,,,,,,,,,,
5a4636c92f91ec0001dcba07,,,,,,,space,0.7686,NAN,,NAN,,0.0,73.0,73.0,73.0,1.0,74.0,Alex,Rej,Participant_Images/5a4636c92f91ec0001dcba07/5a4636c92f91ec0001dcba07_Images/5a4636c92f91ec0001dcba07_Image_2.jpeg,did not like,5.336503566,,,,,,,,,,,,,
5a4636c92f91ec0001dcba07,,,,,,,,,,,,,,,,,,,,,,,,c,0.0,space,0.7549,0.0,0.0,0.0,0.0,1.0,0.7689,,,
5a4636c92f91ec0001dcba07,,,,,,,,,NAN,,NAN,,0.0,74.0,74.0,74.0,1.0,75.0,Alex,Rej,Participant_Images/5a4636c92f91ec0001dcba07/5a4636c92f91ec0001dcba07_Images/5a4636c92f91ec0001dcba07_Image_22.jpeg,did not like,2.642157193,,,,,,,,,,,,,
5a4636c92f91ec0001dcba07,,,,,,,space,1.0251,NAN,,NAN,,0.0,75.0,75.0,75.0,1.0,76.0,Alex,Rej,Participant_Images/5a4636c92f91ec0001dcba07/5a4636c92f91ec0001dcba07_Images/5a4636c92f91ec0001dcba07_Image_10.jpeg,did not like,4.456234322,,,,,,,,,,,,,
5a4636c92f91ec0001dcba07,,,,,,,space,5.6864,NAN,,NAN,,0.0,76.0,76.0,76.0,1.0,77.0,Alex,Rej,Participant_Images/5a4636c92f91ec0001dcba07/5a4636c92f91ec0001dcba07_Images/5a4636c92f91ec0001dcba07_Image_30.jpeg,liked,4.438512181,,,,,,,,,,,,,
5a4636c92f91ec0001dcba07,,,,,,,space,0.9057,NAN,,NAN,,0.0,77.0,77.0,77.0,1.0,78.0,Alex,Rej,Participant_Images/5a4636c92f91ec0001dcba07/5a4636c92f91ec0001dcba07_Images/5a4636c92f91ec0001dcba07_Image_21.jpeg,did not like,2.682944783,,,,,,,,,,,,,
5a4636c92f91ec0001dcba07,,,,,,,space,1.8331,NAN,,NAN,,0.0,78.0,78.0,78.0,1.0,79.0,Alex,Rej,Participant_Images/5a4636c92f91ec0001dcba07/5a4636c92f91ec0001dcba07_Images/5a4636c92f91ec0001dcba07_Image_13.jpeg,did not like,4.51984296,,,,,,,,,,,,,
5a4636c92f91ec0001dcba07,,,,,,,,,,,,,,,,,,,,,,,,c,0.0,space,0.6305,0.0,0.0,0.0,0.0,1.0,0.7144,,,
5a4636c92f91ec0001dcba07,,,,,,,,,NAN,,NAN,,0.0,79.0,79.0,79.0,1.0,80.0,Alex,Rej,Participant_Images/5a4636c92f91ec0001dcba07/5a4636c92f91ec0001dcba07_Images/5a4636c92f91ec0001dcba07_Image_20.jpeg,did not like,3.195382774,,,,,,,,,,,,,
5a4636c92f91ec0001dcba07,,,,,,,space,1.0528,NAN,,NAN,,0.0,80.0,80.0,80.0,1.0,81.0,Alex,Rej,Participant_Images/5a4636c92f91ec0001dcba07/5a4636c92f91ec0001dcba07_Images/5a4636c92f91ec0001dcba07_Image_23.jpeg,did not like,1.779333479,,,,,,,,,,,,,
5a4636c92f91ec0001dcba07,,,,,,,space,0.5665,NAN,,NAN,,0.0,81.0,81.0,81.0,1.0,82.0,Alex,Rej,Participant_Images/5a4636c92f91ec0001dcba07/5a4636c92f91ec0001dcba07_Images/5a4636c92f91ec0001dcba07_Image_3.jpeg,did not like,4.312468682,,,,,,,,,,,,,
5a4636c92f91ec0001dcba07,,,,,,,space,2.1883,NAN,,NAN,,0.0,82.0,82.0,82.0,1.0,83.0,Alex,Rej,Participant_Images/5a4636c92f91ec0001dcba07/5a4636c92f91ec0001dcba07_Images/5a4636c92f91ec0001dcba07_Image_28.jpeg,liked,4.940433059,,,,,,,,,,,,,
5a4636c92f91ec0001dcba07,,,,,,,space,2.2463,NAN,,NAN,,0.0,83.0,83.0,83.0,1.0,84.0,Alex,Rej,Participant_Images/5a4636c92f91ec0001dcba07/5a4636c92f91ec0001dcba07_Images/5a4636c92f91ec0001dcba07_Image_11.jpeg,did not like,2.7105123,,,,,,,,,,,,,
5a4636c92f91ec0001dcba07,,,,,,,,,,,,,,,,,,,,,,,,c,0.0,space,5.0008,0.0,0.0,0.0,0.0,1.0,1.5179,,,
5a4636c92f91ec0001dcba07,,,,,,,,,NAN,,NAN,,0.0,84.0,84.0,84.0,1.0,85.0,Alex,Rej,Participant_Images/5a4636c92f91ec0001dcba07/5a4636c92f91ec0001dcba07_Images/5a4636c92f91ec0001dcba07_Image_4.jpeg,did not like,3.602308302,,,,,,,,,,,,,
5a4636c92f91ec0001dcba07,,,,,,,space,2.232,NAN,,NAN,,0.0,85.0,85.0,85.0,1.0,86.0,Alex,Rej,Participant_Images/5a4636c92f91ec0001dcba07/5a4636c92f91ec0001dcba07_Images/5a4636c92f91ec0001dcba07_Image_7.jpeg,liked,4.106391878,,,,,,,,,,,,,
5a4636c92f91ec0001dcba07,,,,,,,space,0.9577,NAN,,NAN,,0.0,86.0,86.0,86.0,1.0,87.0,Alex,Rej,Participant_Images/5a4636c92f91ec0001dcba07/5a4636c92f91ec0001dcba07_Images/5a4636c92f91ec0001dcba07_Image_16.jpeg,did not like,3.799433026,,,,,,,,,,,,,
5a4636c92f91ec0001dcba07,,,,,,,space,3.4785,NAN,,NAN,,0.0,87.0,87.0,87.0,1.0,88.0,Alex,Rej,Participant_Images/5a4636c92f91ec0001dcba07/5a4636c92f91ec0001dcba07_Images/5a4636c92f91ec0001dcba07_Image_14.jpeg,did not like,5.246980764,,,,,,,,,,,,,
5a4636c92f91ec0001dcba07,,,,,,,space,1.3198,NAN,,NAN,,0.0,88.0,88.0,88.0,1.0,89.0,Alex,Rej,Participant_Images/5a4636c92f91ec0001dcba07/5a4636c92f91ec0001dcba07_Images/5a4636c92f91ec0001dcba07_Image_26.jpeg,liked,3.30081769,,,,,,,,,,,,,
5a4636c92f91ec0001dcba07,,,,,,,,,,,,,,,,,,,,,,,,c,0.0,space,0.5086,0.0,0.0,0.0,0.0,1.0,1.5597,,,
5a4636c92f91ec0001dcba07,,,,,,,,,1,,5,,0.0,89.0,89.0,89.0,1.0,90.0,Alex,Rej,Participant_Images/5a4636c92f91ec0001dcba07/5a4636c92f91ec0001dcba07_Images/5a4636c92f91ec0001dcba07_Image_17.jpeg,liked,1.661473164,,,,,,,,,,,,,
5a4636c92f91ec0001dcba07,,,,,space,2.2275,space,1.4676,NAN,,NAN,,0.0,90.0,90.0,90.0,1.0,91.0,Sam,Acc,Participant_Images/5a4636c92f91ec0001dcba07/5a4636c92f91ec0001dcba07_Images/5a4636c92f91ec0001dcba07_Image_2.jpeg,liked,3.613205605,,,,,,,,,,,,,
5a4636c92f91ec0001dcba07,,,,,,,space,0.9666,NAN,,NAN,,0.0,91.0,91.0,91.0,1.0,92.0,Sam,Acc,Participant_Images/5a4636c92f91ec0001dcba07/5a4636c92f91ec0001dcba07_Images/5a4636c92f91ec0001dcba07_Image_4.jpeg,liked,4.988446431,,,,,,,,,,,,,
5a4636c92f91ec0001dcba07,,,,,,,space,0.4015,NAN,,NAN,,0.0,92.0,92.0,92.0,1.0,93.0,Sam,Acc,Participant_Images/5a4636c92f91ec0001dcba07/5a4636c92f91ec0001dcba07_Images/5a4636c92f91ec0001dcba07_Image_7.jpeg,liked,3.470791822,,,,,,,,,,,,,
5a4636c92f91ec0001dcba07,,,,,,,space,0.9457,NAN,,NAN,,0.0,93.0,93.0,93.0,1.0,94.0,Sam,Acc,Participant_Images/5a4636c92f91ec0001dcba07/5a4636c92f91ec0001dcba07_Images/5a4636c92f91ec0001dcba07_Image_16.jpeg,did not like,3.820572462,,,,,,,,,,,,,
5a4636c92f91ec0001dcba07,,,,,,,,,,,,,,,,,,,,,,,,c,0.0,space,2.4028,0.0,0.0,0.0,0.0,1.0,0.7287,,,
5a4636c92f91ec0001dcba07,,,,,,,,,NAN,,NAN,,0.0,94.0,94.0,94.0,1.0,95.0,Sam,Acc,Participant_Images/5a4636c92f91ec0001dcba07/5a4636c92f91ec0001dcba07_Images/5a4636c92f91ec0001dcba07_Image_17.jpeg,liked,2.455989137,,,,,,,,,,,,,
5a4636c92f91ec0001dcba07,,,,,,,space,2.7747,NAN,,NAN,,0.0,95.0,95.0,95.0,1.0,96.0,Sam,Acc,Participant_Images/5a4636c92f91ec0001dcba07/5a4636c92f91ec0001dcba07_Images/5a4636c92f91ec0001dcba07_Image_11.jpeg,did not like,3.79605092,,,,,,,,,,,,,
5a4636c92f91ec0001dcba07,,,,,,,space,2.5669,NAN,,NAN,,0.0,96.0,96.0,96.0,1.0,97.0,Sam,Acc,Participant_Images/5a4636c92f91ec0001dcba07/5a4636c92f91ec0001dcba07_Images/5a4636c92f91ec0001dcba07_Image_22.jpeg,did not like,3.562416326,,,,,,,,,,,,,
5a4636c92f91ec0001dcba07,,,,,,,space,2.6323,NAN,,NAN,,0.0,97.0,97.0,97.0,1.0,98.0,Sam,Acc,Participant_Images/5a4636c92f91ec0001dcba07/5a4636c92f91ec0001dcba07_Images/5a4636c92f91ec0001dcba07_Image_21.jpeg,liked,2.843822497,,,,,,,,,,,,,
5a4636c92f91ec0001dcba07,,,,,,,space,0.7805,NAN,,NAN,,0.0,98.0,98.0,98.0,1.0,99.0,Sam,Acc,Participant_Images/5a4636c92f91ec0001dcba07/5a4636c92f91ec0001dcba07_Images/5a4636c92f91ec0001dcba07_Image_24.jpeg,did not like,3.546495948,,,,,,,,,,,,,
5a4636c92f91ec0001dcba07,,,,,,,,,,,,,,,,,,,,,,,,c,0.0,space,4.462,0.0,0.0,0.0,0.0,1.0,0.9863,,,
5a4636c92f91ec0001dcba07,,,,,,,,,NAN,,NAN,,0.0,99.0,99.0,99.0,1.0,100.0,Sam,Acc,Participant_Images/5a4636c92f91ec0001dcba07/5a4636c92f91ec0001dcba07_Images/5a4636c92f91ec0001dcba07_Image_29.jpeg,liked,1.672012706,,,,,,,,,,,,,
5a4636c92f91ec0001dcba07,,,,,,,space,0.656,NAN,,NAN,,0.0,100.0,100.0,100.0,1.0,101.0,Sam,Acc,Participant_Images/5a4636c92f91ec0001dcba07/5a4636c92f91ec0001dcba07_Images/5a4636c92f91ec0001dcba07_Image_8.jpeg,liked,4.942172136,,,,,,,,,,,,,
5a4636c92f91ec0001dcba07,,,,,,,space,0.5987,NAN,,NAN,,0.0,101.0,101.0,101.0,1.0,102.0,Sam,Acc,Participant_Images/5a4636c92f91ec0001dcba07/5a4636c92f91ec0001dcba07_Images/5a4636c92f91ec0001dcba07_Image_20.jpeg,liked,2.50187214,,,,,,,,,,,,,
5a4636c92f91ec0001dcba07,,,,,,,space,1.316,NAN,,NAN,,0.0,102.0,102.0,102.0,1.0,103.0,Sam,Acc,Participant_Images/5a4636c92f91ec0001dcba07/5a4636c92f91ec0001dcba07_Images/5a4636c92f91ec0001dcba07_Image_15.jpeg,liked,2.071164779,,,,,,,,,,,,,
5a4636c92f91ec0001dcba07,,,,,,,space,1.4029,NAN,,NAN,,0.0,103.0,103.0,103.0,1.0,104.0,Sam,Acc,Participant_Images/5a4636c92f91ec0001dcba07/5a4636c92f91ec0001dcba07_Images/5a4636c92f91ec0001dcba07_Image_25.jpeg,liked,5.336503566,,,,,,,,,,,,,
5a4636c92f91ec0001dcba07,,,,,,,,,,,,,,,,,,,,,,,,c,0.0,space,0.8227,0.0,0.0,0.0,0.0,1.0,2.3625,,,
5a4636c92f91ec0001dcba07,,,,,,,,,NAN,,NAN,,0.0,104.0,104.0,104.0,1.0,105.0,Sam,Acc,Participant_Images/5a4636c92f91ec0001dcba07/5a4636c92f91ec0001dcba07_Images/5a4636c92f91ec0001dcba07_Image_30.jpeg,liked,2.642157193,,,,,,,,,,,,,
5a4636c92f91ec0001dcba07,,,,,,,space,0.6549,NAN,,NAN,,0.0,105.0,105.0,105.0,1.0,106.0,Sam,Acc,Participant_Images/5a4636c92f91ec0001dcba07/5a4636c92f91ec0001dcba07_Images/5a4636c92f91ec0001dcba07_Image_28.jpeg,liked,4.456234322,,,,,,,,,,,,,
5a4636c92f91ec0001dcba07,,,,,,,space,0.6798,NAN,,NAN,,0.0,106.0,106.0,106.0,1.0,107.0,Sam,Acc,Participant_Images/5a4636c92f91ec0001dcba07/5a4636c92f91ec0001dcba07_Images/5a4636c92f91ec0001dcba07_Image_5.jpeg,did not like,4.438512181,,,,,,,,,,,,,
5a4636c92f91ec0001dcba07,,,,,,,space,0.7662,NAN,,NAN,,0.0,107.0,107.0,107.0,1.0,108.0,Sam,Acc,Participant_Images/5a4636c92f91ec0001dcba07/5a4636c92f91ec0001dcba07_Images/5a4636c92f91ec0001dcba07_Image_6.jpeg,liked,2.682944783,,,,,,,,,,,,,
5a4636c92f91ec0001dcba07,,,,,,,space,1.1017,NAN,,NAN,,0.0,108.0,108.0,108.0,1.0,109.0,Sam,Acc,Participant_Images/5a4636c92f91ec0001dcba07/5a4636c92f91ec0001dcba07_Images/5a4636c92f91ec0001dcba07_Image_19.jpeg,liked,4.51984296,,,,,,,,,,,,,
5a4636c92f91ec0001dcba07,,,,,,,,,,,,,,,,,,,,,,,,c,0.0,space,2.6327,0.0,0.0,0.0,0.0,1.0,3.3536,,,
5a4636c92f91ec0001dcba07,,,,,,,,,NAN,,NAN,,0.0,109.0,109.0,109.0,1.0,110.0,Sam,Acc,Participant_Images/5a4636c92f91ec0001dcba07/5a4636c92f91ec0001dcba07_Images/5a4636c92f91ec0001dcba07_Image_12.jpeg,liked,3.195382774,,,,,,,,,,,,,
5a4636c92f91ec0001dcba07,,,,,,,space,6.5057,NAN,,NAN,,0.0,110.0,110.0,110.0,1.0,111.0,Sam,Acc,Participant_Images/5a4636c92f91ec0001dcba07/5a4636c92f91ec0001dcba07_Images/5a4636c92f91ec0001dcba07_Image_10.jpeg,liked,1.779333479,,,,,,,,,,,,,
5a4636c92f91ec0001dcba07,,,,,,,space,1.8851,NAN,,NAN,,0.0,111.0,111.0,111.0,1.0,112.0,Sam,Acc,Participant_Images/5a4636c92f91ec0001dcba07/5a4636c92f91ec0001dcba07_Images/5a4636c92f91ec0001dcba07_Image_14.jpeg,liked,4.312468682,,,,,,,,,,,,,
5a4636c92f91ec0001dcba07,,,,,,,space,0.9768,NAN,,NAN,,0.0,112.0,112.0,112.0,1.0,113.0,Sam,Acc,Participant_Images/5a4636c92f91ec0001dcba07/5a4636c92f91ec0001dcba07_Images/5a4636c92f91ec0001dcba07_Image_13.jpeg,liked,4.940433059,,,,,,,,,,,,,
5a4636c92f91ec0001dcba07,,,,,,,space,0.6527,NAN,,NAN,,0.0,113.0,113.0,113.0,1.0,114.0,Sam,Acc,Participant_Images/5a4636c92f91ec0001dcba07/5a4636c92f91ec0001dcba07_Images/5a4636c92f91ec0001dcba07_Image_1.jpeg,did not like,2.7105123,,,,,,,,,,,,,
5a4636c92f91ec0001dcba07,,,,,,,,,,,,,,,,,,,,,,,,c,0.0,space,1.1221,0.0,0.0,0.0,0.0,1.0,1.2666,,,
5a4636c92f91ec0001dcba07,,,,,,,,,NAN,,NAN,,0.0,114.0,114.0,114.0,1.0,115.0,Sam,Acc,Participant_Images/5a4636c92f91ec0001dcba07/5a4636c92f91ec0001dcba07_Images/5a4636c92f91ec0001dcba07_Image_27.jpeg,did not like,3.602308302,,,,,,,,,,,,,
5a4636c92f91ec0001dcba07,,,,,,,space,6.3856,NAN,,NAN,,0.0,115.0,115.0,115.0,1.0,116.0,Sam,Acc,Participant_Images/5a4636c92f91ec0001dcba07/5a4636c92f91ec0001dcba07_Images/5a4636c92f91ec0001dcba07_Image_18.jpeg,liked,4.106391878,,,,,,,,,,,,,
5a4636c92f91ec0001dcba07,,,,,,,space,0.8365,NAN,,NAN,,0.0,116.0,116.0,116.0,1.0,117.0,Sam,Acc,Participant_Images/5a4636c92f91ec0001dcba07/5a4636c92f91ec0001dcba07_Images/5a4636c92f91ec0001dcba07_Image_26.jpeg,liked,3.799433026,,,,,,,,,,,,,
5a4636c92f91ec0001dcba07,,,,,,,space,0.9345,NAN,,NAN,,0.0,117.0,117.0,117.0,1.0,118.0,Sam,Acc,Participant_Images/5a4636c92f91ec0001dcba07/5a4636c92f91ec0001dcba07_Images/5a4636c92f91ec0001dcba07_Image_9.jpeg,did not like,5.246980764,,,,,,,,,,,,,
5a4636c92f91ec0001dcba07,,,,,,,space,0.8658,NAN,,NAN,,0.0,118.0,118.0,118.0,1.0,119.0,Sam,Acc,Participant_Images/5a4636c92f91ec0001dcba07/5a4636c92f91ec0001dcba07_Images/5a4636c92f91ec0001dcba07_Image_3.jpeg,did not like,3.30081769,,,,,,,,,,,,,
5a4636c92f91ec0001dcba07,,,,,,,,,,,,,,,,,,,,,,,,c,0.0,space,1.3988,0.0,0.0,0.0,0.0,1.0,0.8312,,,
5a4636c92f91ec0001dcba07,,,,,,,,,3,,5,,0.0,119.0,119.0,119.0,1.0,120.0,Sam,Acc,Participant_Images/5a4636c92f91ec0001dcba07/5a4636c92f91ec0001dcba07_Images/5a4636c92f91ec0001dcba07_Image_23.jpeg,liked,1.661473164,,,,,,,,,,,,,
5a4636c92f91ec0001dcba07,,,,,space,3.3415,space,2.2177,NAN,,NAN,,0.0,120.0,120.0,120.0,1.0,121.0,Charlie,Acc,Participant_Images/5a4636c92f91ec0001dcba07/5a4636c92f91ec0001dcba07_Images/5a4636c92f91ec0001dcba07_Image_12.jpeg,liked,3.613205605,,,,,,,,,,,,,
5a4636c92f91ec0001dcba07,,,,,,,space,0.8668,NAN,,NAN,,0.0,121.0,121.0,121.0,1.0,122.0,Charlie,Acc,Participant_Images/5a4636c92f91ec0001dcba07/5a4636c92f91ec0001dcba07_Images/5a4636c92f91ec0001dcba07_Image_29.jpeg,liked,4.988446431,,,,,,,,,,,,,
5a4636c92f91ec0001dcba07,,,,,,,space,0.7484,NAN,,NAN,,0.0,122.0,122.0,122.0,1.0,123.0,Charlie,Acc,Participant_Images/5a4636c92f91ec0001dcba07/5a4636c92f91ec0001dcba07_Images/5a4636c92f91ec0001dcba07_Image_23.jpeg,did not like,3.470791822,,,,,,,,,,,,,
5a4636c92f91ec0001dcba07,,,,,,,space,1.3962,NAN,,NAN,,0.0,123.0,123.0,123.0,1.0,124.0,Charlie,Acc,Participant_Images/5a4636c92f91ec0001dcba07/5a4636c92f91ec0001dcba07_Images/5a4636c92f91ec0001dcba07_Image_21.jpeg,liked,3.820572462,,,,,,,,,,,,,
5a4636c92f91ec0001dcba07,,,,,,,,,,,,,,,,,,,,,,,,c,0.0,space,0.9874,0.0,0.0,0.0,0.0,1.0,1.6454,,,
5a4636c92f91ec0001dcba07,,,,,,,,,NAN,,NAN,,0.0,124.0,124.0,124.0,1.0,125.0,Charlie,Acc,Participant_Images/5a4636c92f91ec0001dcba07/5a4636c92f91ec0001dcba07_Images/5a4636c92f91ec0001dcba07_Image_8.jpeg,did not like,2.455989137,,,,,,,,,,,,,
5a4636c92f91ec0001dcba07,,,,,,,space,0.6161,NAN,,NAN,,0.0,125.0,125.0,125.0,1.0,126.0,Charlie,Acc,Participant_Images/5a4636c92f91ec0001dcba07/5a4636c92f91ec0001dcba07_Images/5a4636c92f91ec0001dcba07_Image_9.jpeg,liked,3.79605092,,,,,,,,,,,,,
5a4636c92f91ec0001dcba07,,,,,,,space,0.4077,NAN,,NAN,,0.0,126.0,126.0,126.0,1.0,127.0,Charlie,Acc,Participant_Images/5a4636c92f91ec0001dcba07/5a4636c92f91ec0001dcba07_Images/5a4636c92f91ec0001dcba07_Image_25.jpeg,liked,3.562416326,,,,,,,,,,,,,
5a4636c92f91ec0001dcba07,,,,,,,space,0.5524,NAN,,NAN,,0.0,127.0,127.0,127.0,1.0,128.0,Charlie,Acc,Participant_Images/5a4636c92f91ec0001dcba07/5a4636c92f91ec0001dcba07_Images/5a4636c92f91ec0001dcba07_Image_18.jpeg,liked,2.843822497,,,,,,,,,,,,,
5a4636c92f91ec0001dcba07,,,,,,,space,0.4224,NAN,,NAN,,0.0,128.0,128.0,128.0,1.0,129.0,Charlie,Acc,Participant_Images/5a4636c92f91ec0001dcba07/5a4636c92f91ec0001dcba07_Images/5a4636c92f91ec0001dcba07_Image_11.jpeg,liked,3.546495948,,,,,,,,,,,,,
5a4636c92f91ec0001dcba07,,,,,,,,,,,,,,,,,,,,,,,,c,0.0,space,0.5659,0.0,0.0,0.0,0.0,1.0,0.7643,,,
5a4636c92f91ec0001dcba07,,,,,,,,,NAN,,NAN,,0.0,129.0,129.0,129.0,1.0,130.0,Charlie,Acc,Participant_Images/5a4636c92f91ec0001dcba07/5a4636c92f91ec0001dcba07_Images/5a4636c92f91ec0001dcba07_Image_7.jpeg,liked,1.672012706,,,,,,,,,,,,,
5a4636c92f91ec0001dcba07,,,,,,,space,1.1687,NAN,,NAN,,0.0,130.0,130.0,130.0,1.0,131.0,Charlie,Acc,Participant_Images/5a4636c92f91ec0001dcba07/5a4636c92f91ec0001dcba07_Images/5a4636c92f91ec0001dcba07_Image_16.jpeg,did not like,4.942172136,,,,,,,,,,,,,
5a4636c92f91ec0001dcba07,,,,,,,space,2.0337,NAN,,NAN,,0.0,131.0,131.0,131.0,1.0,132.0,Charlie,Acc,Participant_Images/5a4636c92f91ec0001dcba07/5a4636c92f91ec0001dcba07_Images/5a4636c92f91ec0001dcba07_Image_27.jpeg,liked,2.50187214,,,,,,,,,,,,,
5a4636c92f91ec0001dcba07,,,,,,,space,0.6363,NAN,,NAN,,0.0,132.0,132.0,132.0,1.0,133.0,Charlie,Acc,Participant_Images/5a4636c92f91ec0001dcba07/5a4636c92f91ec0001dcba07_Images/5a4636c92f91ec0001dcba07_Image_6.jpeg,did not like,2.071164779,,,,,,,,,,,,,
5a4636c92f91ec0001dcba07,,,,,,,space,0.534,NAN,,NAN,,0.0,133.0,133.0,133.0,1.0,134.0,Charlie,Acc,Participant_Images/5a4636c92f91ec0001dcba07/5a4636c92f91ec0001dcba07_Images/5a4636c92f91ec0001dcba07_Image_17.jpeg,did not like,5.336503566,,,,,,,,,,,,,
5a4636c92f91ec0001dcba07,,,,,,,,,,,,,,,,,,,,,,,,c,0.0,space,0.1642,0.0,0.0,0.0,0.0,1.0,0.8276,,,
5a4636c92f91ec0001dcba07,,,,,,,,,NAN,,NAN,,0.0,134.0,134.0,134.0,1.0,135.0,Charlie,Acc,Participant_Images/5a4636c92f91ec0001dcba07/5a4636c92f91ec0001dcba07_Images/5a4636c92f91ec0001dcba07_Image_4.jpeg,liked,2.642157193,,,,,,,,,,,,,
5a4636c92f91ec0001dcba07,,,,,,,space,0.5218,NAN,,NAN,,0.0,135.0,135.0,135.0,1.0,136.0,Charlie,Acc,Participant_Images/5a4636c92f91ec0001dcba07/5a4636c92f91ec0001dcba07_Images/5a4636c92f91ec0001dcba07_Image_24.jpeg,liked,4.456234322,,,,,,,,,,,,,
5a4636c92f91ec0001dcba07,,,,,,,space,0.6709,NAN,,NAN,,0.0,136.0,136.0,136.0,1.0,137.0,Charlie,Acc,Participant_Images/5a4636c92f91ec0001dcba07/5a4636c92f91ec0001dcba07_Images/5a4636c92f91ec0001dcba07_Image_1.jpeg,liked,4.438512181,,,,,,,,,,,,,
5a4636c92f91ec0001dcba07,,,,,,,space,0.5122,NAN,,NAN,,0.0,137.0,137.0,137.0,1.0,138.0,Charlie,Acc,Participant_Images/5a4636c92f91ec0001dcba07/5a4636c92f91ec0001dcba07_Images/5a4636c92f91ec0001dcba07_Image_22.jpeg,liked,2.682944783,,,,,,,,,,,,,
5a4636c92f91ec0001dcba07,,,,,,,space,0.9203,NAN,,NAN,,0.0,138.0,138.0,138.0,1.0,139.0,Charlie,Acc,Participant_Images/5a4636c92f91ec0001dcba07/5a4636c92f91ec0001dcba07_Images/5a4636c92f91ec0001dcba07_Image_26.jpeg,liked,4.51984296,,,,,,,,,,,,,
5a4636c92f91ec0001dcba07,,,,,,,,,,,,,,,,,,,,,,,,c,0.0,space,3.2616,0.0,0.0,0.0,0.0,1.0,2.0677,,,
5a4636c92f91ec0001dcba07,,,,,,,,,NAN,,NAN,,0.0,139.0,139.0,139.0,1.0,140.0,Charlie,Acc,Participant_Images/5a4636c92f91ec0001dcba07/5a4636c92f91ec0001dcba07_Images/5a4636c92f91ec0001dcba07_Image_20.jpeg,liked,3.195382774,,,,,,,,,,,,,
5a4636c92f91ec0001dcba07,,,,,,,space,0.893,NAN,,NAN,,0.0,140.0,140.0,140.0,1.0,141.0,Charlie,Acc,Participant_Images/5a4636c92f91ec0001dcba07/5a4636c92f91ec0001dcba07_Images/5a4636c92f91ec0001dcba07_Image_19.jpeg,did not like,1.779333479,,,,,,,,,,,,,
5a4636c92f91ec0001dcba07,,,,,,,space,1.1579,NAN,,NAN,,0.0,141.0,141.0,141.0,1.0,142.0,Charlie,Acc,Participant_Images/5a4636c92f91ec0001dcba07/5a4636c92f91ec0001dcba07_Images/5a4636c92f91ec0001dcba07_Image_13.jpeg,did not like,4.312468682,,,,,,,,,,,,,
5a4636c92f91ec0001dcba07,,,,,,,space,0.0369,NAN,,NAN,,0.0,142.0,142.0,142.0,1.0,143.0,Charlie,Acc,Participant_Images/5a4636c92f91ec0001dcba07/5a4636c92f91ec0001dcba07_Images/5a4636c92f91ec0001dcba07_Image_15.jpeg,liked,4.940433059,,,,,,,,,,,,,
5a4636c92f91ec0001dcba07,,,,,,,space,1.1663,NAN,,NAN,,0.0,143.0,143.0,143.0,1.0,144.0,Charlie,Acc,Participant_Images/5a4636c92f91ec0001dcba07/5a4636c92f91ec0001dcba07_Images/5a4636c92f91ec0001dcba07_Image_30.jpeg,liked,2.7105123,,,,,,,,,,,,,
5a4636c92f91ec0001dcba07,,,,,,,,,,,,,,,,,,,,,,,,c,0.0,space,1.7995,0.0,0.0,0.0,0.0,1.0,0.6612,,,
5a4636c92f91ec0001dcba07,,,,,,,,,NAN,,NAN,,0.0,144.0,144.0,144.0,1.0,145.0,Charlie,Acc,Participant_Images/5a4636c92f91ec0001dcba07/5a4636c92f91ec0001dcba07_Images/5a4636c92f91ec0001dcba07_Image_5.jpeg,liked,3.602308302,,,,,,,,,,,,,
5a4636c92f91ec0001dcba07,,,,,,,space,1.4038,NAN,,NAN,,0.0,145.0,145.0,145.0,1.0,146.0,Charlie,Acc,Participant_Images/5a4636c92f91ec0001dcba07/5a4636c92f91ec0001dcba07_Images/5a4636c92f91ec0001dcba07_Image_3.jpeg,did not like,4.106391878,,,,,,,,,,,,,
5a4636c92f91ec0001dcba07,,,,,,,space,1.799,NAN,,NAN,,0.0,146.0,146.0,146.0,1.0,147.0,Charlie,Acc,Participant_Images/5a4636c92f91ec0001dcba07/5a4636c92f91ec0001dcba07_Images/5a4636c92f91ec0001dcba07_Image_10.jpeg,liked,3.799433026,,,,,,,,,,,,,
5a4636c92f91ec0001dcba07,,,,,,,space,3.5382,NAN,,NAN,,0.0,147.0,147.0,147.0,1.0,148.0,Charlie,Acc,Participant_Images/5a4636c92f91ec0001dcba07/5a4636c92f91ec0001dcba07_Images/5a4636c92f91ec0001dcba07_Image_14.jpeg,did not like,5.246980764,,,,,,,,,,,,,
5a4636c92f91ec0001dcba07,,,,,,,space,1.3326,NAN,,NAN,,0.0,148.0,148.0,148.0,1.0,149.0,Charlie,Acc,Participant_Images/5a4636c92f91ec0001dcba07/5a4636c92f91ec0001dcba07_Images/5a4636c92f91ec0001dcba07_Image_28.jpeg,liked,3.30081769,,,,,,,,,,,,,
5a4636c92f91ec0001dcba07,,,,,,,,,,,,,,,,,,,,,,,,c,0.0,space,0.765,0.0,0.0,0.0,0.0,1.0,3.4156,,,
5a4636c92f91ec0001dcba07,,,,,,,,,3,,5,,0.0,149.0,149.0,149.0,1.0,150.0,Charlie,Acc,Participant_Images/5a4636c92f91ec0001dcba07/5a4636c92f91ec0001dcba07_Images/5a4636c92f91ec0001dcba07_Image_2.jpeg,liked,1.661473164,,,,,,,,,,,,,
5a4636c92f91ec0001dcba07,,,,,,,,,,,,,,,,,,,,,,,,,,,,,,,,,,,space,2.1678
