endwelcomescreen_keys.keys,endwelcomescreen_keys.rt,endinstructionscreen_keys.keys,endinstructionscreen_keys.rt,endpartnermatch_keys.keys,endpartnermatch_keys.rt,sharenextphoto_key.keys,sharenextphoto_key.rt,salience_rating,key_resp.keys,stress_level,stresslevel_keypress.keys,entiretaskloop.thisRepN,entiretaskloop.thisTrialN,entiretaskloop.thisN,entiretaskloop.thisIndex,entiretaskloop.ran,TrialNumber,Partner,Condition,Photos,Feedback,FeedbackWait,choice_keys.keys,playlottery,choice_keys.rt,resumeafterlottery_keys.keys,resumeafterlottery_keys.rt,lotteryloop.thisRepN,lotteryloop.thisTrialN,lotteryloop.thisN,lotteryloop.thisIndex,lotteryloop.ran,end_screen_keys.keys,end_screen_keys.rt
space,2.2407,,,,,,,,,,,,,,,,,,,,,,,,,,,,,,,,,
,,,,,,,,,,,,,,,,,,,,,,,,,,,,,,,,,,
,,space,1.9472,,,,,,,,,,,,,,,,,,,,,,,,,,,,,,,
,,,,space,1.0151,space,1.0859,NAN,,NAN,,0,0,0,0,1,1,Taylor,Rej,Participant_Images/611118b967515e93dcf141f1/611118b967515e93dcf141f1_Images/611118b967515e93dcf141f1_Image_6.jpeg,did not like,3.613205605,,,,,,,,,,,,
,,,,,,space,1.42,NAN,,NAN,,0,1,1,1,1,2,Taylor,Rej,Participant_Images/611118b967515e93dcf141f1/611118b967515e93dcf141f1_Images/611118b967515e93dcf141f1_Image_29.jpeg,did not like,4.988446431,,,,,,,,,,,,
,,,,,,space,0.7449,NAN,,NAN,,0,2,2,2,1,3,Taylor,Rej,Participant_Images/611118b967515e93dcf141f1/611118b967515e93dcf141f1_Images/611118b967515e93dcf141f1_Image_21.jpeg,did not like,3.470791822,,,,,,,,,,,,
,,,,,,space,0.5449,NAN,,NAN,,0,3,3,3,1,4,Taylor,Rej,Participant_Images/611118b967515e93dcf141f1/611118b967515e93dcf141f1_Images/611118b967515e93dcf141f1_Image_5.jpeg,did not like,3.820572462,,,,,,,,,,,,
,,,,,,,,,,,,,,,,,,,,,,,c,0,1.0315,space,1.3285,0,0,0,0,1,,
,,,,,,,,NAN,,NAN,,0,4,4,4,1,5,Taylor,Rej,Participant_Images/611118b967515e93dcf141f1/611118b967515e93dcf141f1_Images/611118b967515e93dcf141f1_Image_13.jpeg,did not like,2.455989137,,,,,,,,,,,,
,,,,,,space,3.2018,NAN,,NAN,,0,5,5,5,1,6,Taylor,Rej,Participant_Images/611118b967515e93dcf141f1/611118b967515e93dcf141f1_Images/611118b967515e93dcf141f1_Image_7.jpeg,did not like,3.79605092,,,,,,,,,,,,
,,,,,,space,1.3117,NAN,,NAN,,0,6,6,6,1,7,Taylor,Rej,Participant_Images/611118b967515e93dcf141f1/611118b967515e93dcf141f1_Images/611118b967515e93dcf141f1_Image_9.jpeg,did not like,3.562416326,,,,,,,,,,,,
,,,,,,space,1.1236,NAN,,NAN,,0,7,7,7,1,8,Taylor,Rej,Participant_Images/611118b967515e93dcf141f1/611118b967515e93dcf141f1_Images/611118b967515e93dcf141f1_Image_8.jpeg,did not like,2.843822497,,,,,,,,,,,,
,,,,,,space,1.0287,NAN,,NAN,,0,8,8,8,1,9,Taylor,Rej,Participant_Images/611118b967515e93dcf141f1/611118b967515e93dcf141f1_Images/611118b967515e93dcf141f1_Image_14.jpeg,did not like,3.546495948,,,,,,,,,,,,
,,,,,,,,,,,,,,,,,,,,,,,c,0,3.045,space,1.465,0,0,0,0,1,,
,,,,,,,,NAN,,NAN,,0,9,9,9,1,10,Taylor,Rej,Participant_Images/611118b967515e93dcf141f1/611118b967515e93dcf141f1_Images/611118b967515e93dcf141f1_Image_4.jpeg,did not like,1.672012706,,,,,,,,,,,,
,,,,,,space,1.1492,NAN,,NAN,,0,10,10,10,1,11,Taylor,Rej,Participant_Images/611118b967515e93dcf141f1/611118b967515e93dcf141f1_Images/611118b967515e93dcf141f1_Image_2.jpeg,liked,4.942172136,,,,,,,,,,,,
,,,,,,space,1.3563,NAN,,NAN,,0,11,11,11,1,12,Taylor,Rej,Participant_Images/611118b967515e93dcf141f1/611118b967515e93dcf141f1_Images/611118b967515e93dcf141f1_Image_18.jpeg,liked,2.50187214,,,,,,,,,,,,
,,,,,,space,2.6435,NAN,,NAN,,0,12,12,12,1,13,Taylor,Rej,Participant_Images/611118b967515e93dcf141f1/611118b967515e93dcf141f1_Images/611118b967515e93dcf141f1_Image_17.jpeg,did not like,2.071164779,,,,,,,,,,,,
,,,,,,space,1.9941,NAN,,NAN,,0,13,13,13,1,14,Taylor,Rej,Participant_Images/611118b967515e93dcf141f1/611118b967515e93dcf141f1_Images/611118b967515e93dcf141f1_Image_10.jpeg,liked,5.336503566,,,,,,,,,,,,
,,,,,,,,,,,,,,,,,,,,,,,c,0,1.8335,space,0.581,0,0,0,0,1,,
,,,,,,,,NAN,,NAN,,0,14,14,14,1,15,Taylor,Rej,Participant_Images/611118b967515e93dcf141f1/611118b967515e93dcf141f1_Images/611118b967515e93dcf141f1_Image_30.jpeg,did not like,2.642157193,,,,,,,,,,,,
,,,,,,space,0.674,NAN,,NAN,,0,15,15,15,1,16,Taylor,Rej,Participant_Images/611118b967515e93dcf141f1/611118b967515e93dcf141f1_Images/611118b967515e93dcf141f1_Image_25.jpeg,liked,4.456234322,,,,,,,,,,,,
,,,,,,space,1.2745,NAN,,NAN,,0,16,16,16,1,17,Taylor,Rej,Participant_Images/611118b967515e93dcf141f1/611118b967515e93dcf141f1_Images/611118b967515e93dcf141f1_Image_28.jpeg,did not like,4.438512181,,,,,,,,,,,,
,,,,,,space,0.9784,NAN,,NAN,,0,17,17,17,1,18,Taylor,Rej,Participant_Images/611118b967515e93dcf141f1/611118b967515e93dcf141f1_Images/611118b967515e93dcf141f1_Image_22.jpeg,liked,2.682944783,,,,,,,,,,,,
,,,,,,space,1.2222,NAN,,NAN,,0,18,18,18,1,19,Taylor,Rej,Participant_Images/611118b967515e93dcf141f1/611118b967515e93dcf141f1_Images/611118b967515e93dcf141f1_Image_19.jpeg,did not like,4.51984296,,,,,,,,,,,,
,,,,,,,,,,,,,,,,,,,,,,,c,0,1.7826,space,2.1313,0,0,0,0,1,,
,,,,,,,,NAN,,NAN,,0,19,19,19,1,20,Taylor,Rej,Participant_Images/611118b967515e93dcf141f1/611118b967515e93dcf141f1_Images/611118b967515e93dcf141f1_Image_23.jpeg,did not like,3.195382774,,,,,,,,,,,,
,,,,,,space,1.3064,NAN,,NAN,,0,20,20,20,1,21,Taylor,Rej,Participant_Images/611118b967515e93dcf141f1/611118b967515e93dcf141f1_Images/611118b967515e93dcf141f1_Image_16.jpeg,liked,1.779333479,,,,,,,,,,,,
,,,,,,space,0.8623,NAN,,NAN,,0,21,21,21,1,22,Taylor,Rej,Participant_Images/611118b967515e93dcf141f1/611118b967515e93dcf141f1_Images/611118b967515e93dcf141f1_Image_26.jpeg,liked,4.312468682,,,,,,,,,,,,
,,,,,,space,1.4659,NAN,,NAN,,0,22,22,22,1,23,Taylor,Rej,Participant_Images/611118b967515e93dcf141f1/611118b967515e93dcf141f1_Images/611118b967515e93dcf141f1_Image_27.jpeg,did not like,4.940433059,,,,,,,,,,,,
,,,,,,space,2.0487,NAN,,NAN,,0,23,23,23,1,24,Taylor,Rej,Participant_Images/611118b967515e93dcf141f1/611118b967515e93dcf141f1_Images/611118b967515e93dcf141f1_Image_24.jpeg,liked,2.7105123,,,,,,,,,,,,
,,,,,,,,,,,,,,,,,,,,,,,c,0,3.0144,space,2.8975,0,0,0,0,1,,
,,,,,,,,NAN,,NAN,,0,24,24,24,1,25,Taylor,Rej,Participant_Images/611118b967515e93dcf141f1/611118b967515e93dcf141f1_Images/611118b967515e93dcf141f1_Image_20.jpeg,liked,3.602308302,,,,,,,,,,,,
,,,,,,space,2.9385,NAN,,NAN,,0,25,25,25,1,26,Taylor,Rej,Participant_Images/611118b967515e93dcf141f1/611118b967515e93dcf141f1_Images/611118b967515e93dcf141f1_Image_12.jpeg,did not like,4.106391878,,,,,,,,,,,,
,,,,,,space,1.3612,NAN,,NAN,,0,26,26,26,1,27,Taylor,Rej,Participant_Images/611118b967515e93dcf141f1/611118b967515e93dcf141f1_Images/611118b967515e93dcf141f1_Image_11.jpeg,did not like,3.799433026,,,,,,,,,,,,
,,,,,,space,0.823,NAN,,NAN,,0,27,27,27,1,28,Taylor,Rej,Participant_Images/611118b967515e93dcf141f1/611118b967515e93dcf141f1_Images/611118b967515e93dcf141f1_Image_15.jpeg,did not like,5.246980764,,,,,,,,,,,,
,,,,,,space,1.2907,NAN,,NAN,,0,28,28,28,1,29,Taylor,Rej,Participant_Images/611118b967515e93dcf141f1/611118b967515e93dcf141f1_Images/611118b967515e93dcf141f1_Image_3.jpeg,did not like,3.30081769,,,,,,,,,,,,
,,,,,,,,,,,,,,,,,,,,,,,c,0,1.4688,space,0.8937,0,0,0,0,1,,
,,,,,,,,1,,6,,0,29,29,29,1,30,Taylor,Rej,Participant_Images/611118b967515e93dcf141f1/611118b967515e93dcf141f1_Images/611118b967515e93dcf141f1_Image_1.jpeg,did not like,1.661473164,,,,,,,,,,,,
,,,,space,1.9123,space,1.1936,NAN,,NAN,,0,30,30,30,1,31,Alex,Acc,Participant_Images/611118b967515e93dcf141f1/611118b967515e93dcf141f1_Images/611118b967515e93dcf141f1_Image_6.jpeg,liked,3.613205605,,,,,,,,,,,,
,,,,,,space,1.2855,NAN,,NAN,,0,31,31,31,1,32,Alex,Acc,Participant_Images/611118b967515e93dcf141f1/611118b967515e93dcf141f1_Images/611118b967515e93dcf141f1_Image_20.jpeg,liked,4.988446431,,,,,,,,,,,,
,,,,,,space,0.7827,NAN,,NAN,,0,32,32,32,1,33,Alex,Acc,Participant_Images/611118b967515e93dcf141f1/611118b967515e93dcf141f1_Images/611118b967515e93dcf141f1_Image_4.jpeg,did not like,3.470791822,,,,,,,,,,,,
,,,,,,space,0.6616,NAN,,NAN,,0,33,33,33,1,34,Alex,Acc,Participant_Images/611118b967515e93dcf141f1/611118b967515e93dcf141f1_Images/611118b967515e93dcf141f1_Image_12.jpeg,liked,3.820572462,,,,,,,,,,,,
,,,,,,,,,,,,,,,,,,,,,,,c,0,2.5439,space,0.9651,0,0,0,0,1,,
,,,,,,,,NAN,,NAN,,0,34,34,34,1,35,Alex,Acc,Participant_Images/611118b967515e93dcf141f1/611118b967515e93dcf141f1_Images/611118b967515e93dcf141f1_Image_11.jpeg,liked,2.455989137,,,,,,,,,,,,
,,,,,,space,0.4908,NAN,,NAN,,0,35,35,35,1,36,Alex,Acc,Participant_Images/611118b967515e93dcf141f1/611118b967515e93dcf141f1_Images/611118b967515e93dcf141f1_Image_15.jpeg,liked,3.79605092,,,,,,,,,,,,
,,,,,,space,0.4911,NAN,,NAN,,0,36,36,36,1,37,Alex,Acc,Participant_Images/611118b967515e93dcf141f1/611118b967515e93dcf141f1_Images/611118b967515e93dcf141f1_Image_21.jpeg,liked,3.562416326,,,,,,,,,,,,
,,,,,,space,0.3236,NAN,,NAN,,0,37,37,37,1,38,Alex,Acc,Participant_Images/611118b967515e93dcf141f1/611118b967515e93dcf141f1_Images/611118b967515e93dcf141f1_Image_30.jpeg,liked,2.843822497,,,,,,,,,,,,
,,,,,,space,0.9227,NAN,,NAN,,0,38,38,38,1,39,Alex,Acc,Participant_Images/611118b967515e93dcf141f1/611118b967515e93dcf141f1_Images/611118b967515e93dcf141f1_Image_19.jpeg,liked,3.546495948,,,,,,,,,,,,
,,,,,,,,,,,,,,,,,,,,,,,c,0,1.4431,space,6.506,0,0,0,0,1,,
,,,,,,,,NAN,,NAN,,0,39,39,39,1,40,Alex,Acc,Participant_Images/611118b967515e93dcf141f1/611118b967515e93dcf141f1_Images/611118b967515e93dcf141f1_Image_25.jpeg,liked,1.672012706,,,,,,,,,,,,
,,,,,,space,4.5055,NAN,,NAN,,0,40,40,40,1,41,Alex,Acc,Participant_Images/611118b967515e93dcf141f1/611118b967515e93dcf141f1_Images/611118b967515e93dcf141f1_Image_17.jpeg,liked,4.942172136,,,,,,,,,,,,
,,,,,,space,1.2729,NAN,,NAN,,0,41,41,41,1,42,Alex,Acc,Participant_Images/611118b967515e93dcf141f1/611118b967515e93dcf141f1_Images/611118b967515e93dcf141f1_Image_10.jpeg,liked,2.50187214,,,,,,,,,,,,
,,,,,,space,2.232,NAN,,NAN,,0,42,42,42,1,43,Alex,Acc,Participant_Images/611118b967515e93dcf141f1/611118b967515e93dcf141f1_Images/611118b967515e93dcf141f1_Image_5.jpeg,did not like,2.071164779,,,,,,,,,,,,
,,,,,,space,1.2728,NAN,,NAN,,0,43,43,43,1,44,Alex,Acc,Participant_Images/611118b967515e93dcf141f1/611118b967515e93dcf141f1_Images/611118b967515e93dcf141f1_Image_13.jpeg,did not like,5.336503566,,,,,,,,,,,,
,,,,,,,,,,,,,,,,,,,,,,,c,0,1.5139,space,1.2637,0,0,0,0,1,,
,,,,,,,,NAN,,NAN,,0,44,44,44,1,45,Alex,Acc,Participant_Images/611118b967515e93dcf141f1/611118b967515e93dcf141f1_Images/611118b967515e93dcf141f1_Image_3.jpeg,liked,2.642157193,,,,,,,,,,,,
,,,,,,space,5.063,NAN,,NAN,,0,45,45,45,1,46,Alex,Acc,Participant_Images/611118b967515e93dcf141f1/611118b967515e93dcf141f1_Images/611118b967515e93dcf141f1_Image_22.jpeg,liked,4.456234322,,,,,,,,,,,,
,,,,,,space,1.9397,NAN,,NAN,,0,46,46,46,1,47,Alex,Acc,Participant_Images/611118b967515e93dcf141f1/611118b967515e93dcf141f1_Images/611118b967515e93dcf141f1_Image_8.jpeg,liked,4.438512181,,,,,,,,,,,,
,,,,,,space,1.473,NAN,,NAN,,0,47,47,47,1,48,Alex,Acc,Participant_Images/611118b967515e93dcf141f1/611118b967515e93dcf141f1_Images/611118b967515e93dcf141f1_Image_16.jpeg,liked,2.682944783,,,,,,,,,,,,
,,,,,,space,3.687,NAN,,NAN,,0,48,48,48,1,49,Alex,Acc,Participant_Images/611118b967515e93dcf141f1/611118b967515e93dcf141f1_Images/611118b967515e93dcf141f1_Image_1.jpeg,liked,4.51984296,,,,,,,,,,,,
,,,,,,,,,,,,,,,,,,,,,,,c,0,2.1154,space,1.3147,0,0,0,0,1,,
,,,,,,,,NAN,,NAN,,0,49,49,49,1,50,Alex,Acc,Participant_Images/611118b967515e93dcf141f1/611118b967515e93dcf141f1_Images/611118b967515e93dcf141f1_Image_9.jpeg,liked,3.195382774,,,,,,,,,,,,
,,,,,,space,0.6406,NAN,,NAN,,0,50,50,50,1,51,Alex,Acc,Participant_Images/611118b967515e93dcf141f1/611118b967515e93dcf141f1_Images/611118b967515e93dcf141f1_Image_29.jpeg,liked,1.779333479,,,,,,,,,,,,
,,,,,,space,1.1734,NAN,,NAN,,0,51,51,51,1,52,Alex,Acc,Participant_Images/611118b967515e93dcf141f1/611118b967515e93dcf141f1_Images/611118b967515e93dcf141f1_Image_2.jpeg,liked,4.312468682,,,,,,,,,,,,
,,,,,,space,0.4501,NAN,,NAN,,0,52,52,52,1,53,Alex,Acc,Participant_Images/611118b967515e93dcf141f1/611118b967515e93dcf141f1_Images/611118b967515e93dcf141f1_Image_27.jpeg,did not like,4.940433059,,,,,,,,,,,,
,,,,,,space,1.8393,NAN,,NAN,,0,53,53,53,1,54,Alex,Acc,Participant_Images/611118b967515e93dcf141f1/611118b967515e93dcf141f1_Images/611118b967515e93dcf141f1_Image_28.jpeg,liked,2.7105123,,,,,,,,,,,,
,,,,,,,,,,,,,,,,,,,,,,,c,0,1.6495,space,3.996,0,0,0,0,1,,
,,,,,,,,NAN,,NAN,,0,54,54,54,1,55,Alex,Acc,Participant_Images/611118b967515e93dcf141f1/611118b967515e93dcf141f1_Images/611118b967515e93dcf141f1_Image_26.jpeg,did not like,3.602308302,,,,,,,,,,,,
,,,,,,space,1.3778,NAN,,NAN,,0,55,55,55,1,56,Alex,Acc,Participant_Images/611118b967515e93dcf141f1/611118b967515e93dcf141f1_Images/611118b967515e93dcf141f1_Image_14.jpeg,did not like,4.106391878,,,,,,,,,,,,
,,,,,,space,1.1561,NAN,,NAN,,0,56,56,56,1,57,Alex,Acc,Participant_Images/611118b967515e93dcf141f1/611118b967515e93dcf141f1_Images/611118b967515e93dcf141f1_Image_24.jpeg,did not like,3.799433026,,,,,,,,,,,,
,,,,,,space,1.3161,NAN,,NAN,,0,57,57,57,1,58,Alex,Acc,Participant_Images/611118b967515e93dcf141f1/611118b967515e93dcf141f1_Images/611118b967515e93dcf141f1_Image_18.jpeg,liked,5.246980764,,,,,,,,,,,,
,,,,,,space,4.4377,NAN,,NAN,,0,58,58,58,1,59,Alex,Acc,Participant_Images/611118b967515e93dcf141f1/611118b967515e93dcf141f1_Images/611118b967515e93dcf141f1_Image_7.jpeg,did not like,3.30081769,,,,,,,,,,,,
,,,,,,,,,,,,,,,,,,,,,,,c,0,1.8083,space,6.5082,0,0,0,0,1,,
,,,,,,,,1,,3,,0,59,59,59,1,60,Alex,Acc,Participant_Images/611118b967515e93dcf141f1/611118b967515e93dcf141f1_Images/611118b967515e93dcf141f1_Image_23.jpeg,did not like,1.661473164,,,,,,,,,,,,
,,,,space,3.4829,space,1.1366,NAN,,NAN,,0,60,60,60,1,61,Charlie,Rej,Participant_Images/611118b967515e93dcf141f1/611118b967515e93dcf141f1_Images/611118b967515e93dcf141f1_Image_9.jpeg,did not like,3.613205605,,,,,,,,,,,,
,,,,,,space,0.374,NAN,,NAN,,0,61,61,61,1,62,Charlie,Rej,Participant_Images/611118b967515e93dcf141f1/611118b967515e93dcf141f1_Images/611118b967515e93dcf141f1_Image_1.jpeg,liked,4.988446431,,,,,,,,,,,,
,,,,,,space,1.6854,NAN,,NAN,,0,62,62,62,1,63,Charlie,Rej,Participant_Images/611118b967515e93dcf141f1/611118b967515e93dcf141f1_Images/611118b967515e93dcf141f1_Image_26.jpeg,liked,3.470791822,,,,,,,,,,,,
,,,,,,space,1.4732,NAN,,NAN,,0,63,63,63,1,64,Charlie,Rej,Participant_Images/611118b967515e93dcf141f1/611118b967515e93dcf141f1_Images/611118b967515e93dcf141f1_Image_2.jpeg,liked,3.820572462,,,,,,,,,,,,
,,,,,,,,,,,,,,,,,,,,,,,c,0,1.4164,space,2.014,0,0,0,0,1,,
,,,,,,,,NAN,,NAN,,0,64,64,64,1,65,Charlie,Rej,Participant_Images/611118b967515e93dcf141f1/611118b967515e93dcf141f1_Images/611118b967515e93dcf141f1_Image_25.jpeg,did not like,2.455989137,,,,,,,,,,,,
,,,,,,space,0.8946,NAN,,NAN,,0,65,65,65,1,66,Charlie,Rej,Participant_Images/611118b967515e93dcf141f1/611118b967515e93dcf141f1_Images/611118b967515e93dcf141f1_Image_4.jpeg,liked,3.79605092,,,,,,,,,,,,
,,,,,,space,5.4967,NAN,,NAN,,0,66,66,66,1,67,Charlie,Rej,Participant_Images/611118b967515e93dcf141f1/611118b967515e93dcf141f1_Images/611118b967515e93dcf141f1_Image_28.jpeg,did not like,3.562416326,,,,,,,,,,,,
,,,,,,space,1.5689,NAN,,NAN,,0,67,67,67,1,68,Charlie,Rej,Participant_Images/611118b967515e93dcf141f1/611118b967515e93dcf141f1_Images/611118b967515e93dcf141f1_Image_10.jpeg,did not like,2.843822497,,,,,,,,,,,,
,,,,,,space,0.5241,NAN,,NAN,,0,68,68,68,1,69,Charlie,Rej,Participant_Images/611118b967515e93dcf141f1/611118b967515e93dcf141f1_Images/611118b967515e93dcf141f1_Image_5.jpeg,did not like,3.546495948,,,,,,,,,,,,
,,,,,,,,,,,,,,,,,,,,,,,c,0,1.7159,space,2.214,0,0,0,0,1,,
,,,,,,,,NAN,,NAN,,0,69,69,69,1,70,Charlie,Rej,Participant_Images/611118b967515e93dcf141f1/611118b967515e93dcf141f1_Images/611118b967515e93dcf141f1_Image_23.jpeg,did not like,1.672012706,,,,,,,,,,,,
,,,,,,space,0.3047,NAN,,NAN,,0,70,70,70,1,71,Charlie,Rej,Participant_Images/611118b967515e93dcf141f1/611118b967515e93dcf141f1_Images/611118b967515e93dcf141f1_Image_29.jpeg,liked,4.942172136,,,,,,,,,,,,
,,,,,,space,1.4425,NAN,,NAN,,0,71,71,71,1,72,Charlie,Rej,Participant_Images/611118b967515e93dcf141f1/611118b967515e93dcf141f1_Images/611118b967515e93dcf141f1_Image_3.jpeg,did not like,2.50187214,,,,,,,,,,,,
,,,,,,space,2.6095,NAN,,NAN,,0,72,72,72,1,73,Charlie,Rej,Participant_Images/611118b967515e93dcf141f1/611118b967515e93dcf141f1_Images/611118b967515e93dcf141f1_Image_7.jpeg,did not like,2.071164779,,,,,,,,,,,,
,,,,,,space,5.9076,NAN,,NAN,,0,73,73,73,1,74,Charlie,Rej,Participant_Images/611118b967515e93dcf141f1/611118b967515e93dcf141f1_Images/611118b967515e93dcf141f1_Image_13.jpeg,liked,5.336503566,,,,,,,,,,,,
,,,,,,,,,,,,,,,,,,,,,,,c,0,1.4825,space,2.9963,0,0,0,0,1,,
,,,,,,,,NAN,,NAN,,0,74,74,74,1,75,Charlie,Rej,Participant_Images/611118b967515e93dcf141f1/611118b967515e93dcf141f1_Images/611118b967515e93dcf141f1_Image_22.jpeg,did not like,2.642157193,,,,,,,,,,,,
,,,,,,space,0.6617,NAN,,NAN,,0,75,75,75,1,76,Charlie,Rej,Participant_Images/611118b967515e93dcf141f1/611118b967515e93dcf141f1_Images/611118b967515e93dcf141f1_Image_11.jpeg,did not like,4.456234322,,,,,,,,,,,,
,,,,,,space,2.3576,NAN,,NAN,,0,76,76,76,1,77,Charlie,Rej,Participant_Images/611118b967515e93dcf141f1/611118b967515e93dcf141f1_Images/611118b967515e93dcf141f1_Image_27.jpeg,did not like,4.438512181,,,,,,,,,,,,
,,,,,,space,0.3957,NAN,,NAN,,0,77,77,77,1,78,Charlie,Rej,Participant_Images/611118b967515e93dcf141f1/611118b967515e93dcf141f1_Images/611118b967515e93dcf141f1_Image_8.jpeg,did not like,2.682944783,,,,,,,,,,,,
,,,,,,space,0.5957,NAN,,NAN,,0,78,78,78,1,79,Charlie,Rej,Participant_Images/611118b967515e93dcf141f1/611118b967515e93dcf141f1_Images/611118b967515e93dcf141f1_Image_12.jpeg,did not like,4.51984296,,,,,,,,,,,,
,,,,,,,,,,,,,,,,,,,,,,,c,0,2.442,space,3.0759,0,0,0,0,1,,
,,,,,,,,NAN,,NAN,,0,79,79,79,1,80,Charlie,Rej,Participant_Images/611118b967515e93dcf141f1/611118b967515e93dcf141f1_Images/611118b967515e93dcf141f1_Image_30.jpeg,did not like,3.195382774,,,,,,,,,,,,
,,,,,,space,4.059,NAN,,NAN,,0,80,80,80,1,81,Charlie,Rej,Participant_Images/611118b967515e93dcf141f1/611118b967515e93dcf141f1_Images/611118b967515e93dcf141f1_Image_18.jpeg,did not like,1.779333479,,,,,,,,,,,,
,,,,,,space,1.1679,NAN,,NAN,,0,81,81,81,1,82,Charlie,Rej,Participant_Images/611118b967515e93dcf141f1/611118b967515e93dcf141f1_Images/611118b967515e93dcf141f1_Image_21.jpeg,did not like,4.312468682,,,,,,,,,,,,
,,,,,,space,1.0164,NAN,,NAN,,0,82,82,82,1,83,Charlie,Rej,Participant_Images/611118b967515e93dcf141f1/611118b967515e93dcf141f1_Images/611118b967515e93dcf141f1_Image_15.jpeg,liked,4.940433059,,,,,,,,,,,,
,,,,,,space,1.466,NAN,,NAN,,0,83,83,83,1,84,Charlie,Rej,Participant_Images/611118b967515e93dcf141f1/611118b967515e93dcf141f1_Images/611118b967515e93dcf141f1_Image_6.jpeg,did not like,2.7105123,,,,,,,,,,,,
,,,,,,,,,,,,,,,,,,,,,,,c,0,1.4498,space,1.8482,0,0,0,0,1,,
,,,,,,,,NAN,,NAN,,0,84,84,84,1,85,Charlie,Rej,Participant_Images/611118b967515e93dcf141f1/611118b967515e93dcf141f1_Images/611118b967515e93dcf141f1_Image_16.jpeg,did not like,3.602308302,,,,,,,,,,,,
,,,,,,space,0.6082,NAN,,NAN,,0,85,85,85,1,86,Charlie,Rej,Participant_Images/611118b967515e93dcf141f1/611118b967515e93dcf141f1_Images/611118b967515e93dcf141f1_Image_24.jpeg,did not like,4.106391878,,,,,,,,,,,,
,,,,,,space,2.6769,NAN,,NAN,,0,86,86,86,1,87,Charlie,Rej,Participant_Images/611118b967515e93dcf141f1/611118b967515e93dcf141f1_Images/611118b967515e93dcf141f1_Image_14.jpeg,did not like,3.799433026,,,,,,,,,,,,
,,,,,,space,1.3832,NAN,,NAN,,0,87,87,87,1,88,Charlie,Rej,Participant_Images/611118b967515e93dcf141f1/611118b967515e93dcf141f1_Images/611118b967515e93dcf141f1_Image_17.jpeg,liked,5.246980764,,,,,,,,,,,,
,,,,,,space,1.4583,NAN,,NAN,,0,88,88,88,1,89,Charlie,Rej,Participant_Images/611118b967515e93dcf141f1/611118b967515e93dcf141f1_Images/611118b967515e93dcf141f1_Image_20.jpeg,liked,3.30081769,,,,,,,,,,,,
,,,,,,,,,,,,,,,,,,,,,,,c,0,1.9347,space,0.8433,0,0,0,0,1,,
,,,,,,,,1,,1,,0,89,89,89,1,90,Charlie,Rej,Participant_Images/611118b967515e93dcf141f1/611118b967515e93dcf141f1_Images/611118b967515e93dcf141f1_Image_19.jpeg,did not like,1.661473164,,,,,,,,,,,,
,,,,space,2.0144,space,0.8396,NAN,,NAN,,0,90,90,90,1,91,Sam,Acc,Participant_Images/611118b967515e93dcf141f1/611118b967515e93dcf141f1_Images/611118b967515e93dcf141f1_Image_20.jpeg,liked,3.613205605,,,,,,,,,,,,
,,,,,,space,0.9334,NAN,,NAN,,0,91,91,91,1,92,Sam,Acc,Participant_Images/611118b967515e93dcf141f1/611118b967515e93dcf141f1_Images/611118b967515e93dcf141f1_Image_3.jpeg,did not like,4.988446431,,,,,,,,,,,,
,,,,,,space,0.7067,NAN,,NAN,,0,92,92,92,1,93,Sam,Acc,Participant_Images/611118b967515e93dcf141f1/611118b967515e93dcf141f1_Images/611118b967515e93dcf141f1_Image_11.jpeg,did not like,3.470791822,,,,,,,,,,,,
,,,,,,space,0.5455,NAN,,NAN,,0,93,93,93,1,94,Sam,Acc,Participant_Images/611118b967515e93dcf141f1/611118b967515e93dcf141f1_Images/611118b967515e93dcf141f1_Image_26.jpeg,did not like,3.820572462,,,,,,,,,,,,
,,,,,,,,,,,,,,,,,,,,,,,c,0,0.8323,space,2.0622,0,0,0,0,1,,
,,,,,,,,NAN,,NAN,,0,94,94,94,1,95,Sam,Acc,Participant_Images/611118b967515e93dcf141f1/611118b967515e93dcf141f1_Images/611118b967515e93dcf141f1_Image_9.jpeg,liked,2.455989137,,,,,,,,,,,,
,,,,,,space,1.0531,NAN,,NAN,,0,95,95,95,1,96,Sam,Acc,Participant_Images/611118b967515e93dcf141f1/611118b967515e93dcf141f1_Images/611118b967515e93dcf141f1_Image_2.jpeg,liked,3.79605092,,,,,,,,,,,,
,,,,,,space,0.6228,NAN,,NAN,,0,96,96,96,1,97,Sam,Acc,Participant_Images/611118b967515e93dcf141f1/611118b967515e93dcf141f1_Images/611118b967515e93dcf141f1_Image_27.jpeg,liked,3.562416326,,,,,,,,,,,,
,,,,,,space,0.5406,NAN,,NAN,,0,97,97,97,1,98,Sam,Acc,Participant_Images/611118b967515e93dcf141f1/611118b967515e93dcf141f1_Images/611118b967515e93dcf141f1_Image_5.jpeg,liked,2.843822497,,,,,,,,,,,,
,,,,,,space,1.278,NAN,,NAN,,0,98,98,98,1,99,Sam,Acc,Participant_Images/611118b967515e93dcf141f1/611118b967515e93dcf141f1_Images/611118b967515e93dcf141f1_Image_8.jpeg,did not like,3.546495948,,,,,,,,,,,,
,,,,,,,,,,,,,,,,,,,,,,,c,0,2.8015,space,1.8593,0,0,0,0,1,,
,,,,,,,,NAN,,NAN,,0,99,99,99,1,100,Sam,Acc,Participant_Images/611118b967515e93dcf141f1/611118b967515e93dcf141f1_Images/611118b967515e93dcf141f1_Image_19.jpeg,did not like,1.672012706,,,,,,,,,,,,
,,,,,,space,0.9568,NAN,,NAN,,0,100,100,100,1,101,Sam,Acc,Participant_Images/611118b967515e93dcf141f1/611118b967515e93dcf141f1_Images/611118b967515e93dcf141f1_Image_18.jpeg,liked,4.942172136,,,,,,,,,,,,
,,,,,,space,0.3789,NAN,,NAN,,0,101,101,101,1,102,Sam,Acc,Participant_Images/611118b967515e93dcf141f1/611118b967515e93dcf141f1_Images/611118b967515e93dcf141f1_Image_22.jpeg,liked,2.50187214,,,,,,,,,,,,
,,,,,,space,0.4068,NAN,,NAN,,0,102,102,102,1,103,Sam,Acc,Participant_Images/611118b967515e93dcf141f1/611118b967515e93dcf141f1_Images/611118b967515e93dcf141f1_Image_10.jpeg,liked,2.071164779,,,,,,,,,,,,
,,,,,,space,1.9991,NAN,,NAN,,0,103,103,103,1,104,Sam,Acc,Participant_Images/611118b967515e93dcf141f1/611118b967515e93dcf141f1_Images/611118b967515e93dcf141f1_Image_12.jpeg,did not like,5.336503566,,,,,,,,,,,,
,,,,,,,,,,,,,,,,,,,,,,,c,0,1.8359,space,2.3348,0,0,0,0,1,,
,,,,,,,,NAN,,NAN,,0,104,104,104,1,105,Sam,Acc,Participant_Images/611118b967515e93dcf141f1/611118b967515e93dcf141f1_Images/611118b967515e93dcf141f1_Image_25.jpeg,liked,2.642157193,,,,,,,,,,,,
,,,,,,space,0.6892,NAN,,NAN,,0,105,105,105,1,106,Sam,Acc,Participant_Images/611118b967515e93dcf141f1/611118b967515e93dcf141f1_Images/611118b967515e93dcf141f1_Image_4.jpeg,liked,4.456234322,,,,,,,,,,,,
,,,,,,space,4.9194,NAN,,NAN,,0,106,106,106,1,107,Sam,Acc,Participant_Images/611118b967515e93dcf141f1/611118b967515e93dcf141f1_Images/611118b967515e93dcf141f1_Image_21.jpeg,liked,4.438512181,,,,,,,,,,,,
,,,,,,space,1.3114,NAN,,NAN,,0,107,107,107,1,108,Sam,Acc,Participant_Images/611118b967515e93dcf141f1/611118b967515e93dcf141f1_Images/611118b967515e93dcf141f1_Image_13.jpeg,liked,2.682944783,,,,,,,,,,,,
,,,,,,space,1.7775,NAN,,NAN,,0,108,108,108,1,109,Sam,Acc,Participant_Images/611118b967515e93dcf141f1/611118b967515e93dcf141f1_Images/611118b967515e93dcf141f1_Image_1.jpeg,liked,4.51984296,,,,,,,,,,,,
,,,,,,,,,,,,,,,,,,,,,,,c,0,1.4931,space,0.9969,0,0,0,0,1,,
,,,,,,,,NAN,,NAN,,0,109,109,109,1,110,Sam,Acc,Participant_Images/611118b967515e93dcf141f1/611118b967515e93dcf141f1_Images/611118b967515e93dcf141f1_Image_29.jpeg,liked,3.195382774,,,,,,,,,,,,
,,,,,,space,1.1949,NAN,,NAN,,0,110,110,110,1,111,Sam,Acc,Participant_Images/611118b967515e93dcf141f1/611118b967515e93dcf141f1_Images/611118b967515e93dcf141f1_Image_7.jpeg,liked,1.779333479,,,,,,,,,,,,
,,,,,,space,0.4002,NAN,,NAN,,0,111,111,111,1,112,Sam,Acc,Participant_Images/611118b967515e93dcf141f1/611118b967515e93dcf141f1_Images/611118b967515e93dcf141f1_Image_16.jpeg,did not like,4.312468682,,,,,,,,,,,,
,,,,,,space,0.5241,NAN,,NAN,,0,112,112,112,1,113,Sam,Acc,Participant_Images/611118b967515e93dcf141f1/611118b967515e93dcf141f1_Images/611118b967515e93dcf141f1_Image_30.jpeg,liked,4.940433059,,,,,,,,,,,,
,,,,,,space,0.6267,NAN,,NAN,,0,113,113,113,1,114,Sam,Acc,Participant_Images/611118b967515e93dcf141f1/611118b967515e93dcf141f1_Images/611118b967515e93dcf141f1_Image_17.jpeg,liked,2.7105123,,,,,,,,,,,,
,,,,,,,,,,,,,,,,,,,,,,,c,0,2.0688,space,4.6417,0,0,0,0,1,,
,,,,,,,,NAN,,NAN,,0,114,114,114,1,115,Sam,Acc,Participant_Images/611118b967515e93dcf141f1/611118b967515e93dcf141f1_Images/611118b967515e93dcf141f1_Image_14.jpeg,liked,3.602308302,,,,,,,,,,,,
,,,,,,space,0.9402,NAN,,NAN,,0,115,115,115,1,116,Sam,Acc,Participant_Images/611118b967515e93dcf141f1/611118b967515e93dcf141f1_Images/611118b967515e93dcf141f1_Image_28.jpeg,did not like,4.106391878,,,,,,,,,,,,
,,,,,,space,1.1906,NAN,,NAN,,0,116,116,116,1,117,Sam,Acc,Participant_Images/611118b967515e93dcf141f1/611118b967515e93dcf141f1_Images/611118b967515e93dcf141f1_Image_24.jpeg,did not like,3.799433026,,,,,,,,,,,,
,,,,,,space,0.5122,NAN,,NAN,,0,117,117,117,1,118,Sam,Acc,Participant_Images/611118b967515e93dcf141f1/611118b967515e93dcf141f1_Images/611118b967515e93dcf141f1_Image_15.jpeg,liked,5.246980764,,,,,,,,,,,,
,,,,,,space,0.591,NAN,,NAN,,0,118,118,118,1,119,Sam,Acc,Participant_Images/611118b967515e93dcf141f1/611118b967515e93dcf141f1_Images/611118b967515e93dcf141f1_Image_23.jpeg,liked,3.30081769,,,,,,,,,,,,
,,,,,,,,,,,,,,,,,,,,,,,c,0,3.9733,space,5.8607,0,0,0,0,1,,
,,,,,,,,1,,1,,0,119,119,119,1,120,Sam,Acc,Participant_Images/611118b967515e93dcf141f1/611118b967515e93dcf141f1_Images/611118b967515e93dcf141f1_Image_6.jpeg,liked,1.661473164,,,,,,,,,,,,
,,,,space,1.861,space,0.3608,NAN,,NAN,,0,120,120,120,1,121,Riley,Neutral,Participant_Images/611118b967515e93dcf141f1/611118b967515e93dcf141f1_Images/611118b967515e93dcf141f1_Image_17.jpeg,did not like,3.613205605,,,,,,,,,,,,
,,,,,,space,0.2905,NAN,,NAN,,0,121,121,121,1,122,Riley,Neutral,Participant_Images/611118b967515e93dcf141f1/611118b967515e93dcf141f1_Images/611118b967515e93dcf141f1_Image_13.jpeg,did not like,4.988446431,,,,,,,,,,,,
,,,,,,space,3.6546,NAN,,NAN,,0,122,122,122,1,123,Riley,Neutral,Participant_Images/611118b967515e93dcf141f1/611118b967515e93dcf141f1_Images/611118b967515e93dcf141f1_Image_27.jpeg,did not like,3.470791822,,,,,,,,,,,,
,,,,,,space,0.4668,NAN,,NAN,,0,123,123,123,1,124,Riley,Neutral,Participant_Images/611118b967515e93dcf141f1/611118b967515e93dcf141f1_Images/611118b967515e93dcf141f1_Image_11.jpeg,liked,3.820572462,,,,,,,,,,,,
,,,,,,,,,,,,,,,,,,,,,,,c,0,1.9324,space,0.8148,0,0,0,0,1,,
,,,,,,,,NAN,,NAN,,0,124,124,124,1,125,Riley,Neutral,Participant_Images/611118b967515e93dcf141f1/611118b967515e93dcf141f1_Images/611118b967515e93dcf141f1_Image_24.jpeg,did not like,2.455989137,,,,,,,,,,,,
,,,,,,space,2.3064,NAN,,NAN,,0,125,125,125,1,126,Riley,Neutral,Participant_Images/611118b967515e93dcf141f1/611118b967515e93dcf141f1_Images/611118b967515e93dcf141f1_Image_15.jpeg,did not like,3.79605092,,,,,,,,,,,,
,,,,,,space,1.4369,NAN,,NAN,,0,126,126,126,1,127,Riley,Neutral,Participant_Images/611118b967515e93dcf141f1/611118b967515e93dcf141f1_Images/611118b967515e93dcf141f1_Image_16.jpeg,did not like,3.562416326,,,,,,,,,,,,
,,,,,,space,1.35,NAN,,NAN,,0,127,127,127,1,128,Riley,Neutral,Participant_Images/611118b967515e93dcf141f1/611118b967515e93dcf141f1_Images/611118b967515e93dcf141f1_Image_25.jpeg,liked,2.843822497,,,,,,,,,,,,
,,,,,,space,1.6551,NAN,,NAN,,0,128,128,128,1,129,Riley,Neutral,Participant_Images/611118b967515e93dcf141f1/611118b967515e93dcf141f1_Images/611118b967515e93dcf141f1_Image_30.jpeg,liked,3.546495948,,,,,,,,,,,,
,,,,,,,,,,,,,,,,,,,,,,,c,0,1.605,space,2.659,0,0,0,0,1,,
,,,,,,,,NAN,,NAN,,0,129,129,129,1,130,Riley,Neutral,Participant_Images/611118b967515e93dcf141f1/611118b967515e93dcf141f1_Images/611118b967515e93dcf141f1_Image_21.jpeg,liked,1.672012706,,,,,,,,,,,,
,,,,,,space,2.7649,NAN,,NAN,,0,130,130,130,1,131,Riley,Neutral,Participant_Images/611118b967515e93dcf141f1/611118b967515e93dcf141f1_Images/611118b967515e93dcf141f1_Image_29.jpeg,did not like,4.942172136,,,,,,,,,,,,
,,,,,,space,3.6091,NAN,,NAN,,0,131,131,131,1,132,Riley,Neutral,Participant_Images/611118b967515e93dcf141f1/611118b967515e93dcf141f1_Images/611118b967515e93dcf141f1_Image_8.jpeg,liked,2.50187214,,,,,,,,,,,,
,,,,,,space,2.3771,NAN,,NAN,,0,132,132,132,1,133,Riley,Neutral,Participant_Images/611118b967515e93dcf141f1/611118b967515e93dcf141f1_Images/611118b967515e93dcf141f1_Image_1.jpeg,did not like,2.071164779,,,,,,,,,,,,
,,,,,,space,4.1043,NAN,,NAN,,0,133,133,133,1,134,Riley,Neutral,Participant_Images/611118b967515e93dcf141f1/611118b967515e93dcf141f1_Images/611118b967515e93dcf141f1_Image_14.jpeg,did not like,5.336503566,,,,,,,,,,,,
,,,,,,,,,,,,,,,,,,,,,,,c,0,1.6658,space,5.2781,0,0,0,0,1,,
,,,,,,,,NAN,,NAN,,0,134,134,134,1,135,Riley,Neutral,Participant_Images/611118b967515e93dcf141f1/611118b967515e93dcf141f1_Images/611118b967515e93dcf141f1_Image_10.jpeg,liked,2.642157193,,,,,,,,,,,,
,,,,,,space,0.8572,NAN,,NAN,,0,135,135,135,1,136,Riley,Neutral,Participant_Images/611118b967515e93dcf141f1/611118b967515e93dcf141f1_Images/611118b967515e93dcf141f1_Image_3.jpeg,did not like,4.456234322,,,,,,,,,,,,
,,,,,,space,0.9904,NAN,,NAN,,0,136,136,136,1,137,Riley,Neutral,Participant_Images/611118b967515e93dcf141f1/611118b967515e93dcf141f1_Images/611118b967515e93dcf141f1_Image_9.jpeg,liked,4.438512181,,,,,,,,,,,,
,,,,,,space,0.5572,NAN,,NAN,,0,137,137,137,1,138,Riley,Neutral,Participant_Images/611118b967515e93dcf141f1/611118b967515e93dcf141f1_Images/611118b967515e93dcf141f1_Image_7.jpeg,did not like,2.682944783,,,,,,,,,,,,
,,,,,,space,2.5061,NAN,,NAN,,0,138,138,138,1,139,Riley,Neutral,Participant_Images/611118b967515e93dcf141f1/611118b967515e93dcf141f1_Images/611118b967515e93dcf141f1_Image_4.jpeg,did not like,4.51984296,,,,,,,,,,,,
,,,,,,,,,,,,,,,,,,,,,,,c,0,2.2986,space,0.9484,0,0,0,0,1,,
,,,,,,,,NAN,,NAN,,0,139,139,139,1,140,Riley,Neutral,Participant_Images/611118b967515e93dcf141f1/611118b967515e93dcf141f1_Images/611118b967515e93dcf141f1_Image_22.jpeg,liked,3.195382774,,,,,,,,,,,,
,,,,,,space,0.4732,NAN,,NAN,,0,140,140,140,1,141,Riley,Neutral,Participant_Images/611118b967515e93dcf141f1/611118b967515e93dcf141f1_Images/611118b967515e93dcf141f1_Image_6.jpeg,liked,1.779333479,,,,,,,,,,,,
,,,,,,space,2.7064,NAN,,NAN,,0,141,141,141,1,142,Riley,Neutral,Participant_Images/611118b967515e93dcf141f1/611118b967515e93dcf141f1_Images/611118b967515e93dcf141f1_Image_28.jpeg,liked,4.312468682,,,,,,,,,,,,
,,,,,,space,1.5724,NAN,,NAN,,0,142,142,142,1,143,Riley,Neutral,Participant_Images/611118b967515e93dcf141f1/611118b967515e93dcf141f1_Images/611118b967515e93dcf141f1_Image_18.jpeg,liked,4.940433059,,,,,,,,,,,,
,,,,,,space,1.6735,NAN,,NAN,,0,143,143,143,1,144,Riley,Neutral,Participant_Images/611118b967515e93dcf141f1/611118b967515e93dcf141f1_Images/611118b967515e93dcf141f1_Image_20.jpeg,did not like,2.7105123,,,,,,,,,,,,
,,,,,,,,,,,,,,,,,,,,,,,c,0,1.2442,space,4.2928,0,0,0,0,1,,
,,,,,,,,NAN,,NAN,,0,144,144,144,1,145,Riley,Neutral,Participant_Images/611118b967515e93dcf141f1/611118b967515e93dcf141f1_Images/611118b967515e93dcf141f1_Image_19.jpeg,liked,3.602308302,,,,,,,,,,,,
,,,,,,space,1.8054,NAN,,NAN,,0,145,145,145,1,146,Riley,Neutral,Participant_Images/611118b967515e93dcf141f1/611118b967515e93dcf141f1_Images/611118b967515e93dcf141f1_Image_12.jpeg,liked,4.106391878,,,,,,,,,,,,
,,,,,,space,0.8781,NAN,,NAN,,0,146,146,146,1,147,Riley,Neutral,Participant_Images/611118b967515e93dcf141f1/611118b967515e93dcf141f1_Images/611118b967515e93dcf141f1_Image_23.jpeg,liked,3.799433026,,,,,,,,,,,,
,,,,,,space,1.4606,NAN,,NAN,,0,147,147,147,1,148,Riley,Neutral,Participant_Images/611118b967515e93dcf141f1/611118b967515e93dcf141f1_Images/611118b967515e93dcf141f1_Image_5.jpeg,liked,5.246980764,,,,,,,,,,,,
,,,,,,space,0.6668,NAN,,NAN,,0,148,148,148,1,149,Riley,Neutral,Participant_Images/611118b967515e93dcf141f1/611118b967515e93dcf141f1_Images/611118b967515e93dcf141f1_Image_26.jpeg,did not like,3.30081769,,,,,,,,,,,,
,,,,,,,,,,,,,,,,,,,,,,,,999,,space,2.7933,0,0,0,0,1,,
,,,,,,,,1,,1,,0,149,149,149,1,150,Riley,Neutral,Participant_Images/611118b967515e93dcf141f1/611118b967515e93dcf141f1_Images/611118b967515e93dcf141f1_Image_2.jpeg,did not like,1.661473164,,,,,,,,,,,,
,,,,,,,,,,,,,,,,,,,,,,,,,,,,,,,,,space,3.3305
