PROLIFIC_ID,endwelcomescreen_keys.keys,endwelcomescreen_keys.rt,endinstructionscreen_keys.keys,endinstructionscreen_keys.rt,endpartnermatch_keys.keys,endpartnermatch_keys.rt,sharenextphoto_key.keys,sharenextphoto_key.rt,salience_rating,key_resp.keys,stress_level,stresslevel_keypress.keys,entiretaskloop.thisRepN,entiretaskloop.thisTrialN,entiretaskloop.thisN,entiretaskloop.thisIndex,entiretaskloop.ran,TrialNumber,Partner,Condition,Photos,Feedback,FeedbackWait,choice_keys.keys,playlottery,resumeafterlottery_keys.keys,resumeafterlottery_keys.rt,lotteryloop.thisRepN,lotteryloop.thisTrialN,lotteryloop.thisN,lotteryloop.thisIndex,lotteryloop.ran,choice_keys.rt,lotteryguess_keys.keys,lotteryguess_keys.rt,end_screen_keys.keys,end_screen_keys.rt
568d286ab5a2c2000cb6a91c,space,86.6308,,,,,,,,,,,,,,,,,,,,,,,,,,,,,,,,,,,
,,,,,,,,,,,,,,,,,,,,,,,,,,,,,,,,,,,,,
,,,space,15.9327,,,,,,,,,,,,,,,,,,,,,,,,,,,,,,,,,
,,,,,space,1.7892,space,1.451,NAN,,NAN,,0,0,0,0,1,1,Riley,Acc,Participant_Images/568d286ab5a2c2000cb6a91c/568d286ab5a2c2000cb6a91c_Images/568d286ab5a2c2000cb6a91c_Image_16.jpeg,did not like,3.613205605,,,,,,,,,,,,,,
,,,,,,,space,1.253,NAN,,NAN,,0,1,1,1,1,2,Riley,Acc,Participant_Images/568d286ab5a2c2000cb6a91c/568d286ab5a2c2000cb6a91c_Images/568d286ab5a2c2000cb6a91c_Image_30.jpeg,liked,4.988446431,,,,,,,,,,,,,,
,,,,,,,space,0.5546,NAN,,NAN,,0,2,2,2,1,3,Riley,Acc,Participant_Images/568d286ab5a2c2000cb6a91c/568d286ab5a2c2000cb6a91c_Images/568d286ab5a2c2000cb6a91c_Image_14.jpeg,did not like,3.470791822,,,,,,,,,,,,,,
,,,,,,,space,0.588,NAN,,NAN,,0,3,3,3,1,4,Riley,Acc,Participant_Images/568d286ab5a2c2000cb6a91c/568d286ab5a2c2000cb6a91c_Images/568d286ab5a2c2000cb6a91c_Image_27.jpeg,did not like,3.820572462,,,,,,,,,,,,,,
,,,,,,,,,,,,,,,,,,,,,,,,,999,space,3.8786,0,0,0,0,1,,,,,
,,,,,,,,,NAN,,NAN,,0,4,4,4,1,5,Riley,Acc,Participant_Images/568d286ab5a2c2000cb6a91c/568d286ab5a2c2000cb6a91c_Images/568d286ab5a2c2000cb6a91c_Image_24.jpeg,liked,2.455989137,,,,,,,,,,,,,,
,,,,,,,space,1.6044,NAN,,NAN,,0,5,5,5,1,6,Riley,Acc,Participant_Images/568d286ab5a2c2000cb6a91c/568d286ab5a2c2000cb6a91c_Images/568d286ab5a2c2000cb6a91c_Image_3.jpeg,liked,3.79605092,,,,,,,,,,,,,,
,,,,,,,space,0.6673,NAN,,NAN,,0,6,6,6,1,7,Riley,Acc,Participant_Images/568d286ab5a2c2000cb6a91c/568d286ab5a2c2000cb6a91c_Images/568d286ab5a2c2000cb6a91c_Image_13.jpeg,liked,3.562416326,,,,,,,,,,,,,,
,,,,,,,space,0.7162,NAN,,NAN,,0,7,7,7,1,8,Riley,Acc,Participant_Images/568d286ab5a2c2000cb6a91c/568d286ab5a2c2000cb6a91c_Images/568d286ab5a2c2000cb6a91c_Image_5.jpeg,liked,2.843822497,,,,,,,,,,,,,,
,,,,,,,space,2.4007,NAN,,NAN,,0,8,8,8,1,9,Riley,Acc,Participant_Images/568d286ab5a2c2000cb6a91c/568d286ab5a2c2000cb6a91c_Images/568d286ab5a2c2000cb6a91c_Image_29.jpeg,liked,3.546495948,,,,,,,,,,,,,,
,,,,,,,,,,,,,,,,,,,,,,,,s,1,space,1.2157,0,0,0,0,1,0.6031,,,,
,,,,,,,,,NAN,,NAN,,0,9,9,9,1,10,Riley,Acc,Participant_Images/568d286ab5a2c2000cb6a91c/568d286ab5a2c2000cb6a91c_Images/568d286ab5a2c2000cb6a91c_Image_17.jpeg,did not like,1.672012706,,,,,,,,,,,,,,
,,,,,,,space,0.1549,NAN,,NAN,,0,10,10,10,1,11,Riley,Acc,Participant_Images/568d286ab5a2c2000cb6a91c/568d286ab5a2c2000cb6a91c_Images/568d286ab5a2c2000cb6a91c_Image_26.jpeg,liked,4.942172136,,,,,,,,,,,,,,
,,,,,,,space,2.1693,NAN,,NAN,,0,11,11,11,1,12,Riley,Acc,Participant_Images/568d286ab5a2c2000cb6a91c/568d286ab5a2c2000cb6a91c_Images/568d286ab5a2c2000cb6a91c_Image_18.jpeg,liked,2.50187214,,,,,,,,,,,,,,
,,,,,,,space,1.5839,NAN,,NAN,,0,12,12,12,1,13,Riley,Acc,Participant_Images/568d286ab5a2c2000cb6a91c/568d286ab5a2c2000cb6a91c_Images/568d286ab5a2c2000cb6a91c_Image_15.jpeg,liked,2.071164779,,,,,,,,,,,,,,
,,,,,,,space,0.9842,NAN,,NAN,,0,13,13,13,1,14,Riley,Acc,Participant_Images/568d286ab5a2c2000cb6a91c/568d286ab5a2c2000cb6a91c_Images/568d286ab5a2c2000cb6a91c_Image_2.jpeg,liked,5.336503566,,,,,,,,,,,,,,
,,,,,,,,,,,,,,,,,,,,,,,,s,1,space,1.3313,0,0,0,0,1,0.5597,h,1.3025,,
,,,,,,,,,NAN,,NAN,,0,14,14,14,1,15,Riley,Acc,Participant_Images/568d286ab5a2c2000cb6a91c/568d286ab5a2c2000cb6a91c_Images/568d286ab5a2c2000cb6a91c_Image_7.jpeg,liked,2.642157193,,,,,,,,,,,,,,
,,,,,,,space,0.5824,NAN,,NAN,,0,15,15,15,1,16,Riley,Acc,Participant_Images/568d286ab5a2c2000cb6a91c/568d286ab5a2c2000cb6a91c_Images/568d286ab5a2c2000cb6a91c_Image_23.jpeg,did not like,4.456234322,,,,,,,,,,,,,,
,,,,,,,space,1.4045,NAN,,NAN,,0,16,16,16,1,17,Riley,Acc,Participant_Images/568d286ab5a2c2000cb6a91c/568d286ab5a2c2000cb6a91c_Images/568d286ab5a2c2000cb6a91c_Image_28.jpeg,did not like,4.438512181,,,,,,,,,,,,,,
,,,,,,,space,0.9843,NAN,,NAN,,0,17,17,17,1,18,Riley,Acc,Participant_Images/568d286ab5a2c2000cb6a91c/568d286ab5a2c2000cb6a91c_Images/568d286ab5a2c2000cb6a91c_Image_21.jpeg,liked,2.682944783,,,,,,,,,,,,,,
,,,,,,,space,0.6879,NAN,,NAN,,0,18,18,18,1,19,Riley,Acc,Participant_Images/568d286ab5a2c2000cb6a91c/568d286ab5a2c2000cb6a91c_Images/568d286ab5a2c2000cb6a91c_Image_8.jpeg,did not like,4.51984296,,,,,,,,,,,,,,
,,,,,,,,,,,,,,,,,,,,,,,,s,1,space,0.6717,0,0,0,0,1,0.5173,h,0.797,,
,,,,,,,,,NAN,,NAN,,0,19,19,19,1,20,Riley,Acc,Participant_Images/568d286ab5a2c2000cb6a91c/568d286ab5a2c2000cb6a91c_Images/568d286ab5a2c2000cb6a91c_Image_12.jpeg,liked,3.195382774,,,,,,,,,,,,,,
,,,,,,,space,1.3881,NAN,,NAN,,0,20,20,20,1,21,Riley,Acc,Participant_Images/568d286ab5a2c2000cb6a91c/568d286ab5a2c2000cb6a91c_Images/568d286ab5a2c2000cb6a91c_Image_20.jpeg,liked,1.779333479,,,,,,,,,,,,,,
,,,,,,,space,0.8995,NAN,,NAN,,0,21,21,21,1,22,Riley,Acc,Participant_Images/568d286ab5a2c2000cb6a91c/568d286ab5a2c2000cb6a91c_Images/568d286ab5a2c2000cb6a91c_Image_25.jpeg,liked,4.312468682,,,,,,,,,,,,,,
,,,,,,,space,0.5693,NAN,,NAN,,0,22,22,22,1,23,Riley,Acc,Participant_Images/568d286ab5a2c2000cb6a91c/568d286ab5a2c2000cb6a91c_Images/568d286ab5a2c2000cb6a91c_Image_10.jpeg,liked,4.940433059,,,,,,,,,,,,,,
,,,,,,,space,0.828,NAN,,NAN,,0,23,23,23,1,24,Riley,Acc,Participant_Images/568d286ab5a2c2000cb6a91c/568d286ab5a2c2000cb6a91c_Images/568d286ab5a2c2000cb6a91c_Image_1.jpeg,did not like,2.7105123,,,,,,,,,,,,,,
,,,,,,,,,,,,,,,,,,,,,,,,s,1,space,0.6933,0,0,0,0,1,0.7003,h,0.436,,
,,,,,,,,,NAN,,NAN,,0,24,24,24,1,25,Riley,Acc,Participant_Images/568d286ab5a2c2000cb6a91c/568d286ab5a2c2000cb6a91c_Images/568d286ab5a2c2000cb6a91c_Image_11.jpeg,liked,3.602308302,,,,,,,,,,,,,,
,,,,,,,space,0.6429,NAN,,NAN,,0,25,25,25,1,26,Riley,Acc,Participant_Images/568d286ab5a2c2000cb6a91c/568d286ab5a2c2000cb6a91c_Images/568d286ab5a2c2000cb6a91c_Image_19.jpeg,liked,4.106391878,,,,,,,,,,,,,,
,,,,,,,space,0.4664,NAN,,NAN,,0,26,26,26,1,27,Riley,Acc,Participant_Images/568d286ab5a2c2000cb6a91c/568d286ab5a2c2000cb6a91c_Images/568d286ab5a2c2000cb6a91c_Image_4.jpeg,did not like,3.799433026,,,,,,,,,,,,,,
,,,,,,,space,0.5349,NAN,,NAN,,0,27,27,27,1,28,Riley,Acc,Participant_Images/568d286ab5a2c2000cb6a91c/568d286ab5a2c2000cb6a91c_Images/568d286ab5a2c2000cb6a91c_Image_22.jpeg,liked,5.246980764,,,,,,,,,,,,,,
,,,,,,,space,0.8169,NAN,,NAN,,0,28,28,28,1,29,Riley,Acc,Participant_Images/568d286ab5a2c2000cb6a91c/568d286ab5a2c2000cb6a91c_Images/568d286ab5a2c2000cb6a91c_Image_6.jpeg,liked,3.30081769,,,,,,,,,,,,,,
,,,,,,,,,,,,,,,,,,,,,,,,s,1,space,0.5402,0,0,0,0,1,0.999,h,0.4627,,
,,,,,,,,,3,,5,,0,29,29,29,1,30,Riley,Acc,Participant_Images/568d286ab5a2c2000cb6a91c/568d286ab5a2c2000cb6a91c_Images/568d286ab5a2c2000cb6a91c_Image_9.jpeg,liked,1.661473164,,,,,,,,,,,,,,
,,,,,space,1.7159,space,0.7995,NAN,,NAN,,0,30,30,30,1,31,Sam,Rej,Participant_Images/568d286ab5a2c2000cb6a91c/568d286ab5a2c2000cb6a91c_Images/568d286ab5a2c2000cb6a91c_Image_15.jpeg,did not like,3.613205605,,,,,,,,,,,,,,
,,,,,,,space,0.5705,NAN,,NAN,,0,31,31,31,1,32,Sam,Rej,Participant_Images/568d286ab5a2c2000cb6a91c/568d286ab5a2c2000cb6a91c_Images/568d286ab5a2c2000cb6a91c_Image_26.jpeg,did not like,4.988446431,,,,,,,,,,,,,,
,,,,,,,space,0.8011,NAN,,NAN,,0,32,32,32,1,33,Sam,Rej,Participant_Images/568d286ab5a2c2000cb6a91c/568d286ab5a2c2000cb6a91c_Images/568d286ab5a2c2000cb6a91c_Image_8.jpeg,did not like,3.470791822,,,,,,,,,,,,,,
,,,,,,,space,1.14,NAN,,NAN,,0,33,33,33,1,34,Sam,Rej,Participant_Images/568d286ab5a2c2000cb6a91c/568d286ab5a2c2000cb6a91c_Images/568d286ab5a2c2000cb6a91c_Image_23.jpeg,did not like,3.820572462,,,,,,,,,,,,,,
,,,,,,,,,,,,,,,,,,,,,,,,s,1,space,0.6378,0,0,0,0,1,1.3496,h,1.5652,,
,,,,,,,,,NAN,,NAN,,0,34,34,34,1,35,Sam,Rej,Participant_Images/568d286ab5a2c2000cb6a91c/568d286ab5a2c2000cb6a91c_Images/568d286ab5a2c2000cb6a91c_Image_14.jpeg,liked,2.455989137,,,,,,,,,,,,,,
,,,,,,,space,1.5546,NAN,,NAN,,0,35,35,35,1,36,Sam,Rej,Participant_Images/568d286ab5a2c2000cb6a91c/568d286ab5a2c2000cb6a91c_Images/568d286ab5a2c2000cb6a91c_Image_21.jpeg,did not like,3.79605092,,,,,,,,,,,,,,
,,,,,,,space,0.9825,NAN,,NAN,,0,36,36,36,1,37,Sam,Rej,Participant_Images/568d286ab5a2c2000cb6a91c/568d286ab5a2c2000cb6a91c_Images/568d286ab5a2c2000cb6a91c_Image_1.jpeg,liked,3.562416326,,,,,,,,,,,,,,
,,,,,,,space,0.5557,NAN,,NAN,,0,37,37,37,1,38,Sam,Rej,Participant_Images/568d286ab5a2c2000cb6a91c/568d286ab5a2c2000cb6a91c_Images/568d286ab5a2c2000cb6a91c_Image_22.jpeg,liked,2.843822497,,,,,,,,,,,,,,
,,,,,,,space,0.4339,NAN,,NAN,,0,38,38,38,1,39,Sam,Rej,Participant_Images/568d286ab5a2c2000cb6a91c/568d286ab5a2c2000cb6a91c_Images/568d286ab5a2c2000cb6a91c_Image_3.jpeg,did not like,3.546495948,,,,,,,,,,,,,,
,,,,,,,,,,,,,,,,,,,,,,,,s,1,space,0.5829,0,0,0,0,1,0.6762,h,0.62,,
,,,,,,,,,NAN,,NAN,,0,39,39,39,1,40,Sam,Rej,Participant_Images/568d286ab5a2c2000cb6a91c/568d286ab5a2c2000cb6a91c_Images/568d286ab5a2c2000cb6a91c_Image_28.jpeg,liked,1.672012706,,,,,,,,,,,,,,
,,,,,,,space,0.6661,NAN,,NAN,,0,40,40,40,1,41,Sam,Rej,Participant_Images/568d286ab5a2c2000cb6a91c/568d286ab5a2c2000cb6a91c_Images/568d286ab5a2c2000cb6a91c_Image_25.jpeg,liked,4.942172136,,,,,,,,,,,,,,
,,,,,,,space,4.1314,NAN,,NAN,,0,41,41,41,1,42,Sam,Rej,Participant_Images/568d286ab5a2c2000cb6a91c/568d286ab5a2c2000cb6a91c_Images/568d286ab5a2c2000cb6a91c_Image_20.jpeg,did not like,2.50187214,,,,,,,,,,,,,,
,,,,,,,space,0.9917,NAN,,NAN,,0,42,42,42,1,43,Sam,Rej,Participant_Images/568d286ab5a2c2000cb6a91c/568d286ab5a2c2000cb6a91c_Images/568d286ab5a2c2000cb6a91c_Image_6.jpeg,did not like,2.071164779,,,,,,,,,,,,,,
,,,,,,,space,0.6394,NAN,,NAN,,0,43,43,43,1,44,Sam,Rej,Participant_Images/568d286ab5a2c2000cb6a91c/568d286ab5a2c2000cb6a91c_Images/568d286ab5a2c2000cb6a91c_Image_10.jpeg,liked,5.336503566,,,,,,,,,,,,,,
,,,,,,,,,,,,,,,,,,,,,,,,s,1,space,0.8705,0,0,0,0,1,0.4052,h,0.9287,,
,,,,,,,,,NAN,,NAN,,0,44,44,44,1,45,Sam,Rej,Participant_Images/568d286ab5a2c2000cb6a91c/568d286ab5a2c2000cb6a91c_Images/568d286ab5a2c2000cb6a91c_Image_11.jpeg,did not like,2.642157193,,,,,,,,,,,,,,
,,,,,,,space,0.6325,NAN,,NAN,,0,45,45,45,1,46,Sam,Rej,Participant_Images/568d286ab5a2c2000cb6a91c/568d286ab5a2c2000cb6a91c_Images/568d286ab5a2c2000cb6a91c_Image_17.jpeg,did not like,4.456234322,,,,,,,,,,,,,,
,,,,,,,space,0.7888,NAN,,NAN,,0,46,46,46,1,47,Sam,Rej,Participant_Images/568d286ab5a2c2000cb6a91c/568d286ab5a2c2000cb6a91c_Images/568d286ab5a2c2000cb6a91c_Image_12.jpeg,did not like,4.438512181,,,,,,,,,,,,,,
,,,,,,,space,0.4493,NAN,,NAN,,0,47,47,47,1,48,Sam,Rej,Participant_Images/568d286ab5a2c2000cb6a91c/568d286ab5a2c2000cb6a91c_Images/568d286ab5a2c2000cb6a91c_Image_24.jpeg,liked,2.682944783,,,,,,,,,,,,,,
,,,,,,,space,3.7335,NAN,,NAN,,0,48,48,48,1,49,Sam,Rej,Participant_Images/568d286ab5a2c2000cb6a91c/568d286ab5a2c2000cb6a91c_Images/568d286ab5a2c2000cb6a91c_Image_2.jpeg,did not like,4.51984296,,,,,,,,,,,,,,
,,,,,,,,,,,,,,,,,,,,,,,,s,1,space,22.1687,0,0,0,0,1,1.0438,h,0.5849,,
,,,,,,,,,NAN,,NAN,,0,49,49,49,1,50,Sam,Rej,Participant_Images/568d286ab5a2c2000cb6a91c/568d286ab5a2c2000cb6a91c_Images/568d286ab5a2c2000cb6a91c_Image_5.jpeg,liked,3.195382774,,,,,,,,,,,,,,
,,,,,,,space,2.6718,NAN,,NAN,,0,50,50,50,1,51,Sam,Rej,Participant_Images/568d286ab5a2c2000cb6a91c/568d286ab5a2c2000cb6a91c_Images/568d286ab5a2c2000cb6a91c_Image_4.jpeg,did not like,1.779333479,,,,,,,,,,,,,,
,,,,,,,space,15.1671,NAN,,NAN,,0,51,51,51,1,52,Sam,Rej,Participant_Images/568d286ab5a2c2000cb6a91c/568d286ab5a2c2000cb6a91c_Images/568d286ab5a2c2000cb6a91c_Image_29.jpeg,did not like,4.312468682,,,,,,,,,,,,,,
,,,,,,,space,0.3569,NAN,,NAN,,0,52,52,52,1,53,Sam,Rej,Participant_Images/568d286ab5a2c2000cb6a91c/568d286ab5a2c2000cb6a91c_Images/568d286ab5a2c2000cb6a91c_Image_18.jpeg,did not like,4.940433059,,,,,,,,,,,,,,
,,,,,,,space,0.7194,NAN,,NAN,,0,53,53,53,1,54,Sam,Rej,Participant_Images/568d286ab5a2c2000cb6a91c/568d286ab5a2c2000cb6a91c_Images/568d286ab5a2c2000cb6a91c_Image_16.jpeg,did not like,2.7105123,,,,,,,,,,,,,,
,,,,,,,,,,,,,,,,,,,,,,,,s,1,space,0.5881,0,0,0,0,1,0.8025,h,0.3954,,
,,,,,,,,,NAN,,NAN,,0,54,54,54,1,55,Sam,Rej,Participant_Images/568d286ab5a2c2000cb6a91c/568d286ab5a2c2000cb6a91c_Images/568d286ab5a2c2000cb6a91c_Image_7.jpeg,did not like,3.602308302,,,,,,,,,,,,,,
,,,,,,,space,0.8002,NAN,,NAN,,0,55,55,55,1,56,Sam,Rej,Participant_Images/568d286ab5a2c2000cb6a91c/568d286ab5a2c2000cb6a91c_Images/568d286ab5a2c2000cb6a91c_Image_30.jpeg,did not like,4.106391878,,,,,,,,,,,,,,
,,,,,,,space,0.9176,NAN,,NAN,,0,56,56,56,1,57,Sam,Rej,Participant_Images/568d286ab5a2c2000cb6a91c/568d286ab5a2c2000cb6a91c_Images/568d286ab5a2c2000cb6a91c_Image_19.jpeg,did not like,3.799433026,,,,,,,,,,,,,,
,,,,,,,space,0.9511,NAN,,NAN,,0,57,57,57,1,58,Sam,Rej,Participant_Images/568d286ab5a2c2000cb6a91c/568d286ab5a2c2000cb6a91c_Images/568d286ab5a2c2000cb6a91c_Image_27.jpeg,did not like,5.246980764,,,,,,,,,,,,,,
,,,,,,,space,2.2993,NAN,,NAN,,0,58,58,58,1,59,Sam,Rej,Participant_Images/568d286ab5a2c2000cb6a91c/568d286ab5a2c2000cb6a91c_Images/568d286ab5a2c2000cb6a91c_Image_13.jpeg,liked,3.30081769,,,,,,,,,,,,,,
,,,,,,,,,,,,,,,,,,,,,,,,s,1,space,1.5224,0,0,0,0,1,3.0322,h,0.6194,,
,,,,,,,,,1,,4,,0,59,59,59,1,60,Sam,Rej,Participant_Images/568d286ab5a2c2000cb6a91c/568d286ab5a2c2000cb6a91c_Images/568d286ab5a2c2000cb6a91c_Image_9.jpeg,did not like,1.661473164,,,,,,,,,,,,,,
,,,,,space,7.2683,space,1.8403,NAN,,NAN,,0,60,60,60,1,61,Taylor,Neutral,Participant_Images/568d286ab5a2c2000cb6a91c/568d286ab5a2c2000cb6a91c_Images/568d286ab5a2c2000cb6a91c_Image_27.jpeg,liked,3.613205605,,,,,,,,,,,,,,
,,,,,,,space,0.697,NAN,,NAN,,0,61,61,61,1,62,Taylor,Neutral,Participant_Images/568d286ab5a2c2000cb6a91c/568d286ab5a2c2000cb6a91c_Images/568d286ab5a2c2000cb6a91c_Image_18.jpeg,did not like,4.988446431,,,,,,,,,,,,,,
,,,,,,,space,0.6762,NAN,,NAN,,0,62,62,62,1,63,Taylor,Neutral,Participant_Images/568d286ab5a2c2000cb6a91c/568d286ab5a2c2000cb6a91c_Images/568d286ab5a2c2000cb6a91c_Image_8.jpeg,did not like,3.470791822,,,,,,,,,,,,,,
,,,,,,,space,0.838,NAN,,NAN,,0,63,63,63,1,64,Taylor,Neutral,Participant_Images/568d286ab5a2c2000cb6a91c/568d286ab5a2c2000cb6a91c_Images/568d286ab5a2c2000cb6a91c_Image_17.jpeg,did not like,3.820572462,,,,,,,,,,,,,,
,,,,,,,,,,,,,,,,,,,,,,,,s,1,space,0.7392,0,0,0,0,1,0.8219,h,0.4637,,
,,,,,,,,,NAN,,NAN,,0,64,64,64,1,65,Taylor,Neutral,Participant_Images/568d286ab5a2c2000cb6a91c/568d286ab5a2c2000cb6a91c_Images/568d286ab5a2c2000cb6a91c_Image_16.jpeg,did not like,2.455989137,,,,,,,,,,,,,,
,,,,,,,space,0.689,NAN,,NAN,,0,65,65,65,1,66,Taylor,Neutral,Participant_Images/568d286ab5a2c2000cb6a91c/568d286ab5a2c2000cb6a91c_Images/568d286ab5a2c2000cb6a91c_Image_6.jpeg,did not like,3.79605092,,,,,,,,,,,,,,
,,,,,,,space,0.684,NAN,,NAN,,0,66,66,66,1,67,Taylor,Neutral,Participant_Images/568d286ab5a2c2000cb6a91c/568d286ab5a2c2000cb6a91c_Images/568d286ab5a2c2000cb6a91c_Image_5.jpeg,liked,3.562416326,,,,,,,,,,,,,,
,,,,,,,space,1.005,NAN,,NAN,,0,67,67,67,1,68,Taylor,Neutral,Participant_Images/568d286ab5a2c2000cb6a91c/568d286ab5a2c2000cb6a91c_Images/568d286ab5a2c2000cb6a91c_Image_11.jpeg,liked,2.843822497,,,,,,,,,,,,,,
,,,,,,,space,0.5727,NAN,,NAN,,0,68,68,68,1,69,Taylor,Neutral,Participant_Images/568d286ab5a2c2000cb6a91c/568d286ab5a2c2000cb6a91c_Images/568d286ab5a2c2000cb6a91c_Image_1.jpeg,did not like,3.546495948,,,,,,,,,,,,,,
,,,,,,,,,,,,,,,,,,,,,,,,s,1,space,0.6873,0,0,0,0,1,1.2645,h,0.7639,,
,,,,,,,,,NAN,,NAN,,0,69,69,69,1,70,Taylor,Neutral,Participant_Images/568d286ab5a2c2000cb6a91c/568d286ab5a2c2000cb6a91c_Images/568d286ab5a2c2000cb6a91c_Image_23.jpeg,did not like,1.672012706,,,,,,,,,,,,,,
,,,,,,,space,2.0822,NAN,,NAN,,0,70,70,70,1,71,Taylor,Neutral,Participant_Images/568d286ab5a2c2000cb6a91c/568d286ab5a2c2000cb6a91c_Images/568d286ab5a2c2000cb6a91c_Image_3.jpeg,liked,4.942172136,,,,,,,,,,,,,,
,,,,,,,space,1.6668,NAN,,NAN,,0,71,71,71,1,72,Taylor,Neutral,Participant_Images/568d286ab5a2c2000cb6a91c/568d286ab5a2c2000cb6a91c_Images/568d286ab5a2c2000cb6a91c_Image_10.jpeg,liked,2.50187214,,,,,,,,,,,,,,
,,,,,,,space,2.3276,NAN,,NAN,,0,72,72,72,1,73,Taylor,Neutral,Participant_Images/568d286ab5a2c2000cb6a91c/568d286ab5a2c2000cb6a91c_Images/568d286ab5a2c2000cb6a91c_Image_12.jpeg,did not like,2.071164779,,,,,,,,,,,,,,
,,,,,,,space,3.2551,NAN,,NAN,,0,73,73,73,1,74,Taylor,Neutral,Participant_Images/568d286ab5a2c2000cb6a91c/568d286ab5a2c2000cb6a91c_Images/568d286ab5a2c2000cb6a91c_Image_4.jpeg,liked,5.336503566,,,,,,,,,,,,,,
,,,,,,,,,,,,,,,,,,,,,,,,s,1,space,0.6379,0,0,0,0,1,2.3502,h,0.6804,,
,,,,,,,,,NAN,,NAN,,0,74,74,74,1,75,Taylor,Neutral,Participant_Images/568d286ab5a2c2000cb6a91c/568d286ab5a2c2000cb6a91c_Images/568d286ab5a2c2000cb6a91c_Image_7.jpeg,did not like,2.642157193,,,,,,,,,,,,,,
,,,,,,,space,7.1753,NAN,,NAN,,0,75,75,75,1,76,Taylor,Neutral,Participant_Images/568d286ab5a2c2000cb6a91c/568d286ab5a2c2000cb6a91c_Images/568d286ab5a2c2000cb6a91c_Image_24.jpeg,liked,4.456234322,,,,,,,,,,,,,,
,,,,,,,space,0.5973,NAN,,NAN,,0,76,76,76,1,77,Taylor,Neutral,Participant_Images/568d286ab5a2c2000cb6a91c/568d286ab5a2c2000cb6a91c_Images/568d286ab5a2c2000cb6a91c_Image_20.jpeg,liked,4.438512181,,,,,,,,,,,,,,
,,,,,,,space,0.7211,NAN,,NAN,,0,77,77,77,1,78,Taylor,Neutral,Participant_Images/568d286ab5a2c2000cb6a91c/568d286ab5a2c2000cb6a91c_Images/568d286ab5a2c2000cb6a91c_Image_29.jpeg,liked,2.682944783,,,,,,,,,,,,,,
,,,,,,,space,0.9959,NAN,,NAN,,0,78,78,78,1,79,Taylor,Neutral,Participant_Images/568d286ab5a2c2000cb6a91c/568d286ab5a2c2000cb6a91c_Images/568d286ab5a2c2000cb6a91c_Image_15.jpeg,did not like,4.51984296,,,,,,,,,,,,,,
,,,,,,,,,,,,,,,,,,,,,,,,s,1,space,0.8887,0,0,0,0,1,1.0103,h,0.4969,,
,,,,,,,,,NAN,,NAN,,0,79,79,79,1,80,Taylor,Neutral,Participant_Images/568d286ab5a2c2000cb6a91c/568d286ab5a2c2000cb6a91c_Images/568d286ab5a2c2000cb6a91c_Image_19.jpeg,liked,3.195382774,,,,,,,,,,,,,,
,,,,,,,space,1.4071,NAN,,NAN,,0,80,80,80,1,81,Taylor,Neutral,Participant_Images/568d286ab5a2c2000cb6a91c/568d286ab5a2c2000cb6a91c_Images/568d286ab5a2c2000cb6a91c_Image_9.jpeg,did not like,1.779333479,,,,,,,,,,,,,,
,,,,,,,space,0.6004,NAN,,NAN,,0,81,81,81,1,82,Taylor,Neutral,Participant_Images/568d286ab5a2c2000cb6a91c/568d286ab5a2c2000cb6a91c_Images/568d286ab5a2c2000cb6a91c_Image_22.jpeg,liked,4.312468682,,,,,,,,,,,,,,
,,,,,,,space,2.7816,NAN,,NAN,,0,82,82,82,1,83,Taylor,Neutral,Participant_Images/568d286ab5a2c2000cb6a91c/568d286ab5a2c2000cb6a91c_Images/568d286ab5a2c2000cb6a91c_Image_26.jpeg,did not like,4.940433059,,,,,,,,,,,,,,
,,,,,,,space,0.9578,NAN,,NAN,,0,83,83,83,1,84,Taylor,Neutral,Participant_Images/568d286ab5a2c2000cb6a91c/568d286ab5a2c2000cb6a91c_Images/568d286ab5a2c2000cb6a91c_Image_13.jpeg,liked,2.7105123,,,,,,,,,,,,,,
,,,,,,,,,,,,,,,,,,,,,,,,s,1,space,0.6818,0,0,0,0,1,1.634,h,0.5364,,
,,,,,,,,,NAN,,NAN,,0,84,84,84,1,85,Taylor,Neutral,Participant_Images/568d286ab5a2c2000cb6a91c/568d286ab5a2c2000cb6a91c_Images/568d286ab5a2c2000cb6a91c_Image_21.jpeg,liked,3.602308302,,,,,,,,,,,,,,
,,,,,,,space,0.7722,NAN,,NAN,,0,85,85,85,1,86,Taylor,Neutral,Participant_Images/568d286ab5a2c2000cb6a91c/568d286ab5a2c2000cb6a91c_Images/568d286ab5a2c2000cb6a91c_Image_2.jpeg,did not like,4.106391878,,,,,,,,,,,,,,
,,,,,,,space,1.1217,NAN,,NAN,,0,86,86,86,1,87,Taylor,Neutral,Participant_Images/568d286ab5a2c2000cb6a91c/568d286ab5a2c2000cb6a91c_Images/568d286ab5a2c2000cb6a91c_Image_25.jpeg,did not like,3.799433026,,,,,,,,,,,,,,
,,,,,,,space,0.6999,NAN,,NAN,,0,87,87,87,1,88,Taylor,Neutral,Participant_Images/568d286ab5a2c2000cb6a91c/568d286ab5a2c2000cb6a91c_Images/568d286ab5a2c2000cb6a91c_Image_30.jpeg,liked,5.246980764,,,,,,,,,,,,,,
,,,,,,,space,0.668,NAN,,NAN,,0,88,88,88,1,89,Taylor,Neutral,Participant_Images/568d286ab5a2c2000cb6a91c/568d286ab5a2c2000cb6a91c_Images/568d286ab5a2c2000cb6a91c_Image_14.jpeg,liked,3.30081769,,,,,,,,,,,,,,
,,,,,,,,,,,,,,,,,,,,,,,,c,0,space,0.4922,0,0,0,0,1,2.0588,,,,
,,,,,,,,,4,,5,,0,89,89,89,1,90,Taylor,Neutral,Participant_Images/568d286ab5a2c2000cb6a91c/568d286ab5a2c2000cb6a91c_Images/568d286ab5a2c2000cb6a91c_Image_28.jpeg,did not like,1.661473164,,,,,,,,,,,,,,
,,,,,space,9.463,space,7.6695,NAN,,NAN,,0,90,90,90,1,91,Alex,Rej,Participant_Images/568d286ab5a2c2000cb6a91c/568d286ab5a2c2000cb6a91c_Images/568d286ab5a2c2000cb6a91c_Image_9.jpeg,liked,3.613205605,,,,,,,,,,,,,,
,,,,,,,space,0.9676,NAN,,NAN,,0,91,91,91,1,92,Alex,Rej,Participant_Images/568d286ab5a2c2000cb6a91c/568d286ab5a2c2000cb6a91c_Images/568d286ab5a2c2000cb6a91c_Image_26.jpeg,did not like,4.988446431,,,,,,,,,,,,,,
,,,,,,,space,0.4833,NAN,,NAN,,0,92,92,92,1,93,Alex,Rej,Participant_Images/568d286ab5a2c2000cb6a91c/568d286ab5a2c2000cb6a91c_Images/568d286ab5a2c2000cb6a91c_Image_20.jpeg,did not like,3.470791822,,,,,,,,,,,,,,
,,,,,,,space,0.911,NAN,,NAN,,0,93,93,93,1,94,Alex,Rej,Participant_Images/568d286ab5a2c2000cb6a91c/568d286ab5a2c2000cb6a91c_Images/568d286ab5a2c2000cb6a91c_Image_11.jpeg,liked,3.820572462,,,,,,,,,,,,,,
,,,,,,,,,,,,,,,,,,,,,,,,s,1,space,0.7395,0,0,0,0,1,2.409,h,1.2509,,
,,,,,,,,,NAN,,NAN,,0,94,94,94,1,95,Alex,Rej,Participant_Images/568d286ab5a2c2000cb6a91c/568d286ab5a2c2000cb6a91c_Images/568d286ab5a2c2000cb6a91c_Image_2.jpeg,did not like,2.455989137,,,,,,,,,,,,,,
,,,,,,,space,0.6388,NAN,,NAN,,0,95,95,95,1,96,Alex,Rej,Participant_Images/568d286ab5a2c2000cb6a91c/568d286ab5a2c2000cb6a91c_Images/568d286ab5a2c2000cb6a91c_Image_5.jpeg,did not like,3.79605092,,,,,,,,,,,,,,
,,,,,,,space,0.5662,NAN,,NAN,,0,96,96,96,1,97,Alex,Rej,Participant_Images/568d286ab5a2c2000cb6a91c/568d286ab5a2c2000cb6a91c_Images/568d286ab5a2c2000cb6a91c_Image_1.jpeg,did not like,3.562416326,,,,,,,,,,,,,,
,,,,,,,space,0.8879,NAN,,NAN,,0,97,97,97,1,98,Alex,Rej,Participant_Images/568d286ab5a2c2000cb6a91c/568d286ab5a2c2000cb6a91c_Images/568d286ab5a2c2000cb6a91c_Image_19.jpeg,did not like,2.843822497,,,,,,,,,,,,,,
,,,,,,,space,0.6666,NAN,,NAN,,0,98,98,98,1,99,Alex,Rej,Participant_Images/568d286ab5a2c2000cb6a91c/568d286ab5a2c2000cb6a91c_Images/568d286ab5a2c2000cb6a91c_Image_6.jpeg,did not like,3.546495948,,,,,,,,,,,,,,
,,,,,,,,,,,,,,,,,,,,,,,,s,1,space,0.8058,0,0,0,0,1,1.447,h,0.6802,,
,,,,,,,,,NAN,,NAN,,0,99,99,99,1,100,Alex,Rej,Participant_Images/568d286ab5a2c2000cb6a91c/568d286ab5a2c2000cb6a91c_Images/568d286ab5a2c2000cb6a91c_Image_30.jpeg,did not like,1.672012706,,,,,,,,,,,,,,
,,,,,,,space,0.9831,NAN,,NAN,,0,100,100,100,1,101,Alex,Rej,Participant_Images/568d286ab5a2c2000cb6a91c/568d286ab5a2c2000cb6a91c_Images/568d286ab5a2c2000cb6a91c_Image_12.jpeg,did not like,4.942172136,,,,,,,,,,,,,,
,,,,,,,space,0.8336,NAN,,NAN,,0,101,101,101,1,102,Alex,Rej,Participant_Images/568d286ab5a2c2000cb6a91c/568d286ab5a2c2000cb6a91c_Images/568d286ab5a2c2000cb6a91c_Image_27.jpeg,did not like,2.50187214,,,,,,,,,,,,,,
,,,,,,,space,0.8726,NAN,,NAN,,0,102,102,102,1,103,Alex,Rej,Participant_Images/568d286ab5a2c2000cb6a91c/568d286ab5a2c2000cb6a91c_Images/568d286ab5a2c2000cb6a91c_Image_14.jpeg,liked,2.071164779,,,,,,,,,,,,,,
,,,,,,,space,0.8832,NAN,,NAN,,0,103,103,103,1,104,Alex,Rej,Participant_Images/568d286ab5a2c2000cb6a91c/568d286ab5a2c2000cb6a91c_Images/568d286ab5a2c2000cb6a91c_Image_7.jpeg,did not like,5.336503566,,,,,,,,,,,,,,
,,,,,,,,,,,,,,,,,,,,,,,,s,1,space,0.8062,0,0,0,0,1,2.7563,h,0.513,,
,,,,,,,,,NAN,,NAN,,0,104,104,104,1,105,Alex,Rej,Participant_Images/568d286ab5a2c2000cb6a91c/568d286ab5a2c2000cb6a91c_Images/568d286ab5a2c2000cb6a91c_Image_13.jpeg,did not like,2.642157193,,,,,,,,,,,,,,
,,,,,,,space,0.8656,NAN,,NAN,,0,105,105,105,1,106,Alex,Rej,Participant_Images/568d286ab5a2c2000cb6a91c/568d286ab5a2c2000cb6a91c_Images/568d286ab5a2c2000cb6a91c_Image_16.jpeg,liked,4.456234322,,,,,,,,,,,,,,
,,,,,,,space,0.6728,NAN,,NAN,,0,106,106,106,1,107,Alex,Rej,Participant_Images/568d286ab5a2c2000cb6a91c/568d286ab5a2c2000cb6a91c_Images/568d286ab5a2c2000cb6a91c_Image_8.jpeg,did not like,4.438512181,,,,,,,,,,,,,,
,,,,,,,space,0.2504,NAN,,NAN,,0,107,107,107,1,108,Alex,Rej,Participant_Images/568d286ab5a2c2000cb6a91c/568d286ab5a2c2000cb6a91c_Images/568d286ab5a2c2000cb6a91c_Image_21.jpeg,did not like,2.682944783,,,,,,,,,,,,,,
,,,,,,,space,0.7657,NAN,,NAN,,0,108,108,108,1,109,Alex,Rej,Participant_Images/568d286ab5a2c2000cb6a91c/568d286ab5a2c2000cb6a91c_Images/568d286ab5a2c2000cb6a91c_Image_10.jpeg,liked,4.51984296,,,,,,,,,,,,,,
,,,,,,,,,,,,,,,,,,,,,,,,s,1,space,0.4694,0,0,0,0,1,1.51,h,0.8195,,
,,,,,,,,,NAN,,NAN,,0,109,109,109,1,110,Alex,Rej,Participant_Images/568d286ab5a2c2000cb6a91c/568d286ab5a2c2000cb6a91c_Images/568d286ab5a2c2000cb6a91c_Image_22.jpeg,did not like,3.195382774,,,,,,,,,,,,,,
,,,,,,,space,0.6884,NAN,,NAN,,0,110,110,110,1,111,Alex,Rej,Participant_Images/568d286ab5a2c2000cb6a91c/568d286ab5a2c2000cb6a91c_Images/568d286ab5a2c2000cb6a91c_Image_17.jpeg,did not like,1.779333479,,,,,,,,,,,,,,
,,,,,,,space,0.8492,NAN,,NAN,,0,111,111,111,1,112,Alex,Rej,Participant_Images/568d286ab5a2c2000cb6a91c/568d286ab5a2c2000cb6a91c_Images/568d286ab5a2c2000cb6a91c_Image_25.jpeg,did not like,4.312468682,,,,,,,,,,,,,,
,,,,,,,space,0.7874,NAN,,NAN,,0,112,112,112,1,113,Alex,Rej,Participant_Images/568d286ab5a2c2000cb6a91c/568d286ab5a2c2000cb6a91c_Images/568d286ab5a2c2000cb6a91c_Image_28.jpeg,liked,4.940433059,,,,,,,,,,,,,,
,,,,,,,space,1.3004,NAN,,NAN,,0,113,113,113,1,114,Alex,Rej,Participant_Images/568d286ab5a2c2000cb6a91c/568d286ab5a2c2000cb6a91c_Images/568d286ab5a2c2000cb6a91c_Image_23.jpeg,did not like,2.7105123,,,,,,,,,,,,,,
,,,,,,,,,,,,,,,,,,,,,,,,s,1,space,0.7167,0,0,0,0,1,0.5643,h,0.5855,,
,,,,,,,,,NAN,,NAN,,0,114,114,114,1,115,Alex,Rej,Participant_Images/568d286ab5a2c2000cb6a91c/568d286ab5a2c2000cb6a91c_Images/568d286ab5a2c2000cb6a91c_Image_4.jpeg,did not like,3.602308302,,,,,,,,,,,,,,
,,,,,,,space,0.7659,NAN,,NAN,,0,115,115,115,1,116,Alex,Rej,Participant_Images/568d286ab5a2c2000cb6a91c/568d286ab5a2c2000cb6a91c_Images/568d286ab5a2c2000cb6a91c_Image_24.jpeg,liked,4.106391878,,,,,,,,,,,,,,
,,,,,,,space,2.0493,NAN,,NAN,,0,116,116,116,1,117,Alex,Rej,Participant_Images/568d286ab5a2c2000cb6a91c/568d286ab5a2c2000cb6a91c_Images/568d286ab5a2c2000cb6a91c_Image_3.jpeg,liked,3.799433026,,,,,,,,,,,,,,
,,,,,,,space,0.633,NAN,,NAN,,0,117,117,117,1,118,Alex,Rej,Participant_Images/568d286ab5a2c2000cb6a91c/568d286ab5a2c2000cb6a91c_Images/568d286ab5a2c2000cb6a91c_Image_18.jpeg,did not like,5.246980764,,,,,,,,,,,,,,
,,,,,,,space,1.6002,NAN,,NAN,,0,118,118,118,1,119,Alex,Rej,Participant_Images/568d286ab5a2c2000cb6a91c/568d286ab5a2c2000cb6a91c_Images/568d286ab5a2c2000cb6a91c_Image_29.jpeg,did not like,3.30081769,,,,,,,,,,,,,,
,,,,,,,,,,,,,,,,,,,,,,,,s,1,space,2.3886,0,0,0,0,1,2.7496,h,0.9469,,
,,,,,,,,,2,,5,,0,119,119,119,1,120,Alex,Rej,Participant_Images/568d286ab5a2c2000cb6a91c/568d286ab5a2c2000cb6a91c_Images/568d286ab5a2c2000cb6a91c_Image_15.jpeg,liked,1.661473164,,,,,,,,,,,,,,
,,,,,space,1.3047,space,1.272,NAN,,NAN,,0,120,120,120,1,121,Charlie,Acc,Participant_Images/568d286ab5a2c2000cb6a91c/568d286ab5a2c2000cb6a91c_Images/568d286ab5a2c2000cb6a91c_Image_11.jpeg,did not like,3.613205605,,,,,,,,,,,,,,
,,,,,,,space,1.1218,NAN,,NAN,,0,121,121,121,1,122,Charlie,Acc,Participant_Images/568d286ab5a2c2000cb6a91c/568d286ab5a2c2000cb6a91c_Images/568d286ab5a2c2000cb6a91c_Image_18.jpeg,liked,4.988446431,,,,,,,,,,,,,,
,,,,,,,space,1.0326,NAN,,NAN,,0,122,122,122,1,123,Charlie,Acc,Participant_Images/568d286ab5a2c2000cb6a91c/568d286ab5a2c2000cb6a91c_Images/568d286ab5a2c2000cb6a91c_Image_24.jpeg,liked,3.470791822,,,,,,,,,,,,,,
,,,,,,,space,0.7115,NAN,,NAN,,0,123,123,123,1,124,Charlie,Acc,Participant_Images/568d286ab5a2c2000cb6a91c/568d286ab5a2c2000cb6a91c_Images/568d286ab5a2c2000cb6a91c_Image_25.jpeg,liked,3.820572462,,,,,,,,,,,,,,
,,,,,,,,,,,,,,,,,,,,,,,,s,1,space,0.6002,0,0,0,0,1,0.9793,h,1.7189,,
,,,,,,,,,NAN,,NAN,,0,124,124,124,1,125,Charlie,Acc,Participant_Images/568d286ab5a2c2000cb6a91c/568d286ab5a2c2000cb6a91c_Images/568d286ab5a2c2000cb6a91c_Image_30.jpeg,liked,2.455989137,,,,,,,,,,,,,,
,,,,,,,space,0.4896,NAN,,NAN,,0,125,125,125,1,126,Charlie,Acc,Participant_Images/568d286ab5a2c2000cb6a91c/568d286ab5a2c2000cb6a91c_Images/568d286ab5a2c2000cb6a91c_Image_20.jpeg,did not like,3.79605092,,,,,,,,,,,,,,
,,,,,,,space,0.6502,NAN,,NAN,,0,126,126,126,1,127,Charlie,Acc,Participant_Images/568d286ab5a2c2000cb6a91c/568d286ab5a2c2000cb6a91c_Images/568d286ab5a2c2000cb6a91c_Image_7.jpeg,did not like,3.562416326,,,,,,,,,,,,,,
,,,,,,,space,0.5503,NAN,,NAN,,0,127,127,127,1,128,Charlie,Acc,Participant_Images/568d286ab5a2c2000cb6a91c/568d286ab5a2c2000cb6a91c_Images/568d286ab5a2c2000cb6a91c_Image_14.jpeg,liked,2.843822497,,,,,,,,,,,,,,
,,,,,,,space,0.8341,NAN,,NAN,,0,128,128,128,1,129,Charlie,Acc,Participant_Images/568d286ab5a2c2000cb6a91c/568d286ab5a2c2000cb6a91c_Images/568d286ab5a2c2000cb6a91c_Image_10.jpeg,did not like,3.546495948,,,,,,,,,,,,,,
,,,,,,,,,,,,,,,,,,,,,,,,s,1,space,0.7381,0,0,0,0,1,0.95,h,0.5297,,
,,,,,,,,,NAN,,NAN,,0,129,129,129,1,130,Charlie,Acc,Participant_Images/568d286ab5a2c2000cb6a91c/568d286ab5a2c2000cb6a91c_Images/568d286ab5a2c2000cb6a91c_Image_3.jpeg,liked,1.672012706,,,,,,,,,,,,,,
,,,,,,,space,1.1506,NAN,,NAN,,0,130,130,130,1,131,Charlie,Acc,Participant_Images/568d286ab5a2c2000cb6a91c/568d286ab5a2c2000cb6a91c_Images/568d286ab5a2c2000cb6a91c_Image_27.jpeg,did not like,4.942172136,,,,,,,,,,,,,,
,,,,,,,space,0.669,NAN,,NAN,,0,131,131,131,1,132,Charlie,Acc,Participant_Images/568d286ab5a2c2000cb6a91c/568d286ab5a2c2000cb6a91c_Images/568d286ab5a2c2000cb6a91c_Image_5.jpeg,liked,2.50187214,,,,,,,,,,,,,,
,,,,,,,space,0.7182,NAN,,NAN,,0,132,132,132,1,133,Charlie,Acc,Participant_Images/568d286ab5a2c2000cb6a91c/568d286ab5a2c2000cb6a91c_Images/568d286ab5a2c2000cb6a91c_Image_13.jpeg,did not like,2.071164779,,,,,,,,,,,,,,
,,,,,,,space,6.8332,NAN,,NAN,,0,133,133,133,1,134,Charlie,Acc,Participant_Images/568d286ab5a2c2000cb6a91c/568d286ab5a2c2000cb6a91c_Images/568d286ab5a2c2000cb6a91c_Image_2.jpeg,liked,5.336503566,,,,,,,,,,,,,,
,,,,,,,,,,,,,,,,,,,,,,,,s,1,space,1.4953,0,0,0,0,1,1.5193,,,,
,,,,,,,,,NAN,,NAN,,0,134,134,134,1,135,Charlie,Acc,Participant_Images/568d286ab5a2c2000cb6a91c/568d286ab5a2c2000cb6a91c_Images/568d286ab5a2c2000cb6a91c_Image_6.jpeg,liked,2.642157193,,,,,,,,,,,,,,
,,,,,,,space,1.0327,NAN,,NAN,,0,135,135,135,1,136,Charlie,Acc,Participant_Images/568d286ab5a2c2000cb6a91c/568d286ab5a2c2000cb6a91c_Images/568d286ab5a2c2000cb6a91c_Image_16.jpeg,liked,4.456234322,,,,,,,,,,,,,,
,,,,,,,space,0.9348,NAN,,NAN,,0,136,136,136,1,137,Charlie,Acc,Participant_Images/568d286ab5a2c2000cb6a91c/568d286ab5a2c2000cb6a91c_Images/568d286ab5a2c2000cb6a91c_Image_1.jpeg,liked,4.438512181,,,,,,,,,,,,,,
,,,,,,,space,1.2904,NAN,,NAN,,0,137,137,137,1,138,Charlie,Acc,Participant_Images/568d286ab5a2c2000cb6a91c/568d286ab5a2c2000cb6a91c_Images/568d286ab5a2c2000cb6a91c_Image_4.jpeg,did not like,2.682944783,,,,,,,,,,,,,,
,,,,,,,space,0.5683,NAN,,NAN,,0,138,138,138,1,139,Charlie,Acc,Participant_Images/568d286ab5a2c2000cb6a91c/568d286ab5a2c2000cb6a91c_Images/568d286ab5a2c2000cb6a91c_Image_23.jpeg,liked,4.51984296,,,,,,,,,,,,,,
,,,,,,,,,,,,,,,,,,,,,,,,s,1,space,0.7118,0,0,0,0,1,1.5819,h,0.3494,,
,,,,,,,,,NAN,,NAN,,0,139,139,139,1,140,Charlie,Acc,Participant_Images/568d286ab5a2c2000cb6a91c/568d286ab5a2c2000cb6a91c_Images/568d286ab5a2c2000cb6a91c_Image_12.jpeg,did not like,3.195382774,,,,,,,,,,,,,,
,,,,,,,space,1.5168,NAN,,NAN,,0,140,140,140,1,141,Charlie,Acc,Participant_Images/568d286ab5a2c2000cb6a91c/568d286ab5a2c2000cb6a91c_Images/568d286ab5a2c2000cb6a91c_Image_28.jpeg,liked,1.779333479,,,,,,,,,,,,,,
,,,,,,,space,1.1494,NAN,,NAN,,0,141,141,141,1,142,Charlie,Acc,Participant_Images/568d286ab5a2c2000cb6a91c/568d286ab5a2c2000cb6a91c_Images/568d286ab5a2c2000cb6a91c_Image_21.jpeg,liked,4.312468682,,,,,,,,,,,,,,
,,,,,,,space,0.5899,NAN,,NAN,,0,142,142,142,1,143,Charlie,Acc,Participant_Images/568d286ab5a2c2000cb6a91c/568d286ab5a2c2000cb6a91c_Images/568d286ab5a2c2000cb6a91c_Image_15.jpeg,liked,4.940433059,,,,,,,,,,,,,,
,,,,,,,space,0.6827,NAN,,NAN,,0,143,143,143,1,144,Charlie,Acc,Participant_Images/568d286ab5a2c2000cb6a91c/568d286ab5a2c2000cb6a91c_Images/568d286ab5a2c2000cb6a91c_Image_8.jpeg,liked,2.7105123,,,,,,,,,,,,,,
,,,,,,,,,,,,,,,,,,,,,,,,s,1,space,4.6046,0,0,0,0,1,1.0651,h,0.3128,,
,,,,,,,,,NAN,,NAN,,0,144,144,144,1,145,Charlie,Acc,Participant_Images/568d286ab5a2c2000cb6a91c/568d286ab5a2c2000cb6a91c_Images/568d286ab5a2c2000cb6a91c_Image_19.jpeg,liked,3.602308302,,,,,,,,,,,,,,
,,,,,,,space,1.2564,NAN,,NAN,,0,145,145,145,1,146,Charlie,Acc,Participant_Images/568d286ab5a2c2000cb6a91c/568d286ab5a2c2000cb6a91c_Images/568d286ab5a2c2000cb6a91c_Image_9.jpeg,liked,4.106391878,,,,,,,,,,,,,,
,,,,,,,space,0.7164,NAN,,NAN,,0,146,146,146,1,147,Charlie,Acc,Participant_Images/568d286ab5a2c2000cb6a91c/568d286ab5a2c2000cb6a91c_Images/568d286ab5a2c2000cb6a91c_Image_17.jpeg,liked,3.799433026,,,,,,,,,,,,,,
,,,,,,,space,0.2321,NAN,,NAN,,0,147,147,147,1,148,Charlie,Acc,Participant_Images/568d286ab5a2c2000cb6a91c/568d286ab5a2c2000cb6a91c_Images/568d286ab5a2c2000cb6a91c_Image_22.jpeg,did not like,5.246980764,,,,,,,,,,,,,,
,,,,,,,space,0.704,NAN,,NAN,,0,148,148,148,1,149,Charlie,Acc,Participant_Images/568d286ab5a2c2000cb6a91c/568d286ab5a2c2000cb6a91c_Images/568d286ab5a2c2000cb6a91c_Image_26.jpeg,liked,3.30081769,,,,,,,,,,,,,,
,,,,,,,,,,,,,,,,,,,,,,,,s,1,space,0.4502,0,0,0,0,1,1.3268,l,0.902,,
,,,,,,,,,4,,5,,0,149,149,149,1,150,Charlie,Acc,Participant_Images/568d286ab5a2c2000cb6a91c/568d286ab5a2c2000cb6a91c_Images/568d286ab5a2c2000cb6a91c_Image_29.jpeg,liked,1.661473164,,,,,,,,,,,,,,
,,,,,,,,,,,,,,,,,,,,,,,,,,,,,,,,,,,,space,2.2544
