PROLIFIC_ID,endwelcomescreen_keys.keys,endwelcomescreen_keys.rt,endinstructionscreen_keys.keys,endinstructionscreen_keys.rt,endpartnermatch_keys.keys,endpartnermatch_keys.rt,sharenextphoto_key.keys,sharenextphoto_key.rt,salience_rating,key_resp.keys,stress_level,stresslevel_keypress.keys,entiretaskloop.thisRepN,entiretaskloop.thisTrialN,entiretaskloop.thisN,entiretaskloop.thisIndex,entiretaskloop.ran,TrialNumber,Partner,Condition,Photos,Feedback,FeedbackWait,choice_keys.keys,playlottery,resumeafterlottery_keys.keys,resumeafterlottery_keys.rt,lotteryloop.thisRepN,lotteryloop.thisTrialN,lotteryloop.thisN,lotteryloop.thisIndex,lotteryloop.ran,choice_keys.rt,lotteryguess_keys.keys,lotteryguess_keys.rt,end_screen_keys.keys,end_screen_keys.rt
595727bd7c76640001aa8f6e,space,13.3163,,,,,,,,,,,,,,,,,,,,,,,,,,,,,,,,,,,
,,,,,,,,,,,,,,,,,,,,,,,,,,,,,,,,,,,,,
,,,space,9.0379,,,,,,,,,,,,,,,,,,,,,,,,,,,,,,,,,
,,,,,space,7.8186,space,1.0192,NAN,,NAN,,0,0,0,0,1,1,Riley,Neutral,Participant_Images/595727bd7c76640001aa8f6e/595727bd7c76640001aa8f6e_Images/595727bd7c76640001aa8f6e_Image_5.jpeg,liked,3.613205605,,,,,,,,,,,,,,
,,,,,,,space,1.6514,NAN,,NAN,,0,1,1,1,1,2,Riley,Neutral,Participant_Images/595727bd7c76640001aa8f6e/595727bd7c76640001aa8f6e_Images/595727bd7c76640001aa8f6e_Image_3.jpeg,liked,4.988446431,,,,,,,,,,,,,,
,,,,,,,space,1.612,NAN,,NAN,,0,2,2,2,1,3,Riley,Neutral,Participant_Images/595727bd7c76640001aa8f6e/595727bd7c76640001aa8f6e_Images/595727bd7c76640001aa8f6e_Image_25.jpeg,liked,3.470791822,,,,,,,,,,,,,,
,,,,,,,space,1.6445,NAN,,NAN,,0,3,3,3,1,4,Riley,Neutral,Participant_Images/595727bd7c76640001aa8f6e/595727bd7c76640001aa8f6e_Images/595727bd7c76640001aa8f6e_Image_21.jpeg,did not like,3.820572462,,,,,,,,,,,,,,
,,,,,,,,,,,,,,,,,,,,,,,,,999,space,2.8087,0,0,0,0,1,,,,,
,,,,,,,,,NAN,,NAN,,0,4,4,4,1,5,Riley,Neutral,Participant_Images/595727bd7c76640001aa8f6e/595727bd7c76640001aa8f6e_Images/595727bd7c76640001aa8f6e_Image_28.jpeg,did not like,2.455989137,,,,,,,,,,,,,,
,,,,,,,space,1.6542,NAN,,NAN,,0,5,5,5,1,6,Riley,Neutral,Participant_Images/595727bd7c76640001aa8f6e/595727bd7c76640001aa8f6e_Images/595727bd7c76640001aa8f6e_Image_30.jpeg,liked,3.79605092,,,,,,,,,,,,,,
,,,,,,,space,1.3209,NAN,,NAN,,0,6,6,6,1,7,Riley,Neutral,Participant_Images/595727bd7c76640001aa8f6e/595727bd7c76640001aa8f6e_Images/595727bd7c76640001aa8f6e_Image_1.jpeg,liked,3.562416326,,,,,,,,,,,,,,
,,,,,,,space,0.9751,NAN,,NAN,,0,7,7,7,1,8,Riley,Neutral,Participant_Images/595727bd7c76640001aa8f6e/595727bd7c76640001aa8f6e_Images/595727bd7c76640001aa8f6e_Image_13.jpeg,did not like,2.843822497,,,,,,,,,,,,,,
,,,,,,,space,1.0211,NAN,,NAN,,0,8,8,8,1,9,Riley,Neutral,Participant_Images/595727bd7c76640001aa8f6e/595727bd7c76640001aa8f6e_Images/595727bd7c76640001aa8f6e_Image_14.jpeg,liked,3.546495948,,,,,,,,,,,,,,
,,,,,,,,,,,,,,,,,,,,,,,,c,0,space,1.3793,0,0,0,0,1,3.328,,,,
,,,,,,,,,NAN,,NAN,,0,9,9,9,1,10,Riley,Neutral,Participant_Images/595727bd7c76640001aa8f6e/595727bd7c76640001aa8f6e_Images/595727bd7c76640001aa8f6e_Image_9.jpeg,liked,1.672012706,,,,,,,,,,,,,,
,,,,,,,space,2.6924,NAN,,NAN,,0,10,10,10,1,11,Riley,Neutral,Participant_Images/595727bd7c76640001aa8f6e/595727bd7c76640001aa8f6e_Images/595727bd7c76640001aa8f6e_Image_26.jpeg,did not like,4.942172136,,,,,,,,,,,,,,
,,,,,,,space,1.9733,NAN,,NAN,,0,11,11,11,1,12,Riley,Neutral,Participant_Images/595727bd7c76640001aa8f6e/595727bd7c76640001aa8f6e_Images/595727bd7c76640001aa8f6e_Image_6.jpeg,did not like,2.50187214,,,,,,,,,,,,,,
,,,,,,,space,3.5696,NAN,,NAN,,0,12,12,12,1,13,Riley,Neutral,Participant_Images/595727bd7c76640001aa8f6e/595727bd7c76640001aa8f6e_Images/595727bd7c76640001aa8f6e_Image_8.jpeg,did not like,2.071164779,,,,,,,,,,,,,,
,,,,,,,space,1.9408,NAN,,NAN,,0,13,13,13,1,14,Riley,Neutral,Participant_Images/595727bd7c76640001aa8f6e/595727bd7c76640001aa8f6e_Images/595727bd7c76640001aa8f6e_Image_20.jpeg,did not like,5.336503566,,,,,,,,,,,,,,
,,,,,,,,,,,,,,,,,,,,,,,,s,1,space,1.2763,0,0,0,0,1,1.6913,,,,
,,,,,,,,,NAN,,NAN,,0,14,14,14,1,15,Riley,Neutral,Participant_Images/595727bd7c76640001aa8f6e/595727bd7c76640001aa8f6e_Images/595727bd7c76640001aa8f6e_Image_2.jpeg,liked,2.642157193,,,,,,,,,,,,,,
,,,,,,,space,0.9737,NAN,,NAN,,0,15,15,15,1,16,Riley,Neutral,Participant_Images/595727bd7c76640001aa8f6e/595727bd7c76640001aa8f6e_Images/595727bd7c76640001aa8f6e_Image_19.jpeg,did not like,4.456234322,,,,,,,,,,,,,,
,,,,,,,space,1.2957,NAN,,NAN,,0,16,16,16,1,17,Riley,Neutral,Participant_Images/595727bd7c76640001aa8f6e/595727bd7c76640001aa8f6e_Images/595727bd7c76640001aa8f6e_Image_12.jpeg,liked,4.438512181,,,,,,,,,,,,,,
,,,,,,,space,0.9715,NAN,,NAN,,0,17,17,17,1,18,Riley,Neutral,Participant_Images/595727bd7c76640001aa8f6e/595727bd7c76640001aa8f6e_Images/595727bd7c76640001aa8f6e_Image_18.jpeg,liked,2.682944783,,,,,,,,,,,,,,
,,,,,,,space,1.2972,NAN,,NAN,,0,18,18,18,1,19,Riley,Neutral,Participant_Images/595727bd7c76640001aa8f6e/595727bd7c76640001aa8f6e_Images/595727bd7c76640001aa8f6e_Image_10.jpeg,did not like,4.51984296,,,,,,,,,,,,,,
,,,,,,,,,,,,,,,,,,,,,,,,s,1,space,0.9934,0,0,0,0,1,1.6421,h,1.1962,,
,,,,,,,,,NAN,,NAN,,0,19,19,19,1,20,Riley,Neutral,Participant_Images/595727bd7c76640001aa8f6e/595727bd7c76640001aa8f6e_Images/595727bd7c76640001aa8f6e_Image_11.jpeg,liked,3.195382774,,,,,,,,,,,,,,
,,,,,,,space,1.3447,NAN,,NAN,,0,20,20,20,1,21,Riley,Neutral,Participant_Images/595727bd7c76640001aa8f6e/595727bd7c76640001aa8f6e_Images/595727bd7c76640001aa8f6e_Image_29.jpeg,liked,1.779333479,,,,,,,,,,,,,,
,,,,,,,space,1.9677,NAN,,NAN,,0,21,21,21,1,22,Riley,Neutral,Participant_Images/595727bd7c76640001aa8f6e/595727bd7c76640001aa8f6e_Images/595727bd7c76640001aa8f6e_Image_4.jpeg,liked,4.312468682,,,,,,,,,,,,,,
,,,,,,,space,5.8156,NAN,,NAN,,0,22,22,22,1,23,Riley,Neutral,Participant_Images/595727bd7c76640001aa8f6e/595727bd7c76640001aa8f6e_Images/595727bd7c76640001aa8f6e_Image_17.jpeg,did not like,4.940433059,,,,,,,,,,,,,,
,,,,,,,space,1.686,NAN,,NAN,,0,23,23,23,1,24,Riley,Neutral,Participant_Images/595727bd7c76640001aa8f6e/595727bd7c76640001aa8f6e_Images/595727bd7c76640001aa8f6e_Image_27.jpeg,liked,2.7105123,,,,,,,,,,,,,,
,,,,,,,,,,,,,,,,,,,,,,,,s,1,space,1.0562,0,0,0,0,1,2.0277,l,0.8675,,
,,,,,,,,,NAN,,NAN,,0,24,24,24,1,25,Riley,Neutral,Participant_Images/595727bd7c76640001aa8f6e/595727bd7c76640001aa8f6e_Images/595727bd7c76640001aa8f6e_Image_24.jpeg,did not like,3.602308302,,,,,,,,,,,,,,
,,,,,,,space,2.961,NAN,,NAN,,0,25,25,25,1,26,Riley,Neutral,Participant_Images/595727bd7c76640001aa8f6e/595727bd7c76640001aa8f6e_Images/595727bd7c76640001aa8f6e_Image_15.jpeg,did not like,4.106391878,,,,,,,,,,,,,,
,,,,,,,space,1.2923,NAN,,NAN,,0,26,26,26,1,27,Riley,Neutral,Participant_Images/595727bd7c76640001aa8f6e/595727bd7c76640001aa8f6e_Images/595727bd7c76640001aa8f6e_Image_22.jpeg,liked,3.799433026,,,,,,,,,,,,,,
,,,,,,,space,5.212,NAN,,NAN,,0,27,27,27,1,28,Riley,Neutral,Participant_Images/595727bd7c76640001aa8f6e/595727bd7c76640001aa8f6e_Images/595727bd7c76640001aa8f6e_Image_23.jpeg,did not like,5.246980764,,,,,,,,,,,,,,
,,,,,,,space,2.0474,NAN,,NAN,,0,28,28,28,1,29,Riley,Neutral,Participant_Images/595727bd7c76640001aa8f6e/595727bd7c76640001aa8f6e_Images/595727bd7c76640001aa8f6e_Image_7.jpeg,did not like,3.30081769,,,,,,,,,,,,,,
,,,,,,,,,,,,,,,,,,,,,,,,c,0,space,1.2928,0,0,0,0,1,1.8941,,,,
,,,,,,,,,4,,5,,0,29,29,29,1,30,Riley,Neutral,Participant_Images/595727bd7c76640001aa8f6e/595727bd7c76640001aa8f6e_Images/595727bd7c76640001aa8f6e_Image_16.jpeg,did not like,1.661473164,,,,,,,,,,,,,,
,,,,,space,2.4726,space,2.037,NAN,,NAN,,0,30,30,30,1,31,Sam,Acc,Participant_Images/595727bd7c76640001aa8f6e/595727bd7c76640001aa8f6e_Images/595727bd7c76640001aa8f6e_Image_27.jpeg,did not like,3.613205605,,,,,,,,,,,,,,
,,,,,,,space,0.9879,NAN,,NAN,,0,31,31,31,1,32,Sam,Acc,Participant_Images/595727bd7c76640001aa8f6e/595727bd7c76640001aa8f6e_Images/595727bd7c76640001aa8f6e_Image_10.jpeg,liked,4.988446431,,,,,,,,,,,,,,
,,,,,,,space,1.014,NAN,,NAN,,0,32,32,32,1,33,Sam,Acc,Participant_Images/595727bd7c76640001aa8f6e/595727bd7c76640001aa8f6e_Images/595727bd7c76640001aa8f6e_Image_11.jpeg,liked,3.470791822,,,,,,,,,,,,,,
,,,,,,,space,0.991,NAN,,NAN,,0,33,33,33,1,34,Sam,Acc,Participant_Images/595727bd7c76640001aa8f6e/595727bd7c76640001aa8f6e_Images/595727bd7c76640001aa8f6e_Image_22.jpeg,liked,3.820572462,,,,,,,,,,,,,,
,,,,,,,,,,,,,,,,,,,,,,,,c,0,space,1.0135,0,0,0,0,1,2.7238,,,,
,,,,,,,,,NAN,,NAN,,0,34,34,34,1,35,Sam,Acc,Participant_Images/595727bd7c76640001aa8f6e/595727bd7c76640001aa8f6e_Images/595727bd7c76640001aa8f6e_Image_21.jpeg,liked,2.455989137,,,,,,,,,,,,,,
,,,,,,,space,3.2908,NAN,,NAN,,0,35,35,35,1,36,Sam,Acc,Participant_Images/595727bd7c76640001aa8f6e/595727bd7c76640001aa8f6e_Images/595727bd7c76640001aa8f6e_Image_4.jpeg,did not like,3.79605092,,,,,,,,,,,,,,
,,,,,,,space,1.9695,NAN,,NAN,,0,36,36,36,1,37,Sam,Acc,Participant_Images/595727bd7c76640001aa8f6e/595727bd7c76640001aa8f6e_Images/595727bd7c76640001aa8f6e_Image_29.jpeg,liked,3.562416326,,,,,,,,,,,,,,
,,,,,,,space,1.0038,NAN,,NAN,,0,37,37,37,1,38,Sam,Acc,Participant_Images/595727bd7c76640001aa8f6e/595727bd7c76640001aa8f6e_Images/595727bd7c76640001aa8f6e_Image_20.jpeg,liked,2.843822497,,,,,,,,,,,,,,
,,,,,,,space,1.3863,NAN,,NAN,,0,38,38,38,1,39,Sam,Acc,Participant_Images/595727bd7c76640001aa8f6e/595727bd7c76640001aa8f6e_Images/595727bd7c76640001aa8f6e_Image_7.jpeg,liked,3.546495948,,,,,,,,,,,,,,
,,,,,,,,,,,,,,,,,,,,,,,,c,0,space,2.4647,0,0,0,0,1,3.0004,,,,
,,,,,,,,,NAN,,NAN,,0,39,39,39,1,40,Sam,Acc,Participant_Images/595727bd7c76640001aa8f6e/595727bd7c76640001aa8f6e_Images/595727bd7c76640001aa8f6e_Image_6.jpeg,liked,1.672012706,,,,,,,,,,,,,,
,,,,,,,space,1.6398,NAN,,NAN,,0,40,40,40,1,41,Sam,Acc,Participant_Images/595727bd7c76640001aa8f6e/595727bd7c76640001aa8f6e_Images/595727bd7c76640001aa8f6e_Image_25.jpeg,liked,4.942172136,,,,,,,,,,,,,,
,,,,,,,space,1.035,NAN,,NAN,,0,41,41,41,1,42,Sam,Acc,Participant_Images/595727bd7c76640001aa8f6e/595727bd7c76640001aa8f6e_Images/595727bd7c76640001aa8f6e_Image_24.jpeg,did not like,2.50187214,,,,,,,,,,,,,,
,,,,,,,space,1.6332,NAN,,NAN,,0,42,42,42,1,43,Sam,Acc,Participant_Images/595727bd7c76640001aa8f6e/595727bd7c76640001aa8f6e_Images/595727bd7c76640001aa8f6e_Image_19.jpeg,liked,2.071164779,,,,,,,,,,,,,,
,,,,,,,space,1.0459,NAN,,NAN,,0,43,43,43,1,44,Sam,Acc,Participant_Images/595727bd7c76640001aa8f6e/595727bd7c76640001aa8f6e_Images/595727bd7c76640001aa8f6e_Image_9.jpeg,liked,5.336503566,,,,,,,,,,,,,,
,,,,,,,,,,,,,,,,,,,,,,,,s,1,space,2.2859,0,0,0,0,1,4.0215,h,0.9153,,
,,,,,,,,,NAN,,NAN,,0,44,44,44,1,45,Sam,Acc,Participant_Images/595727bd7c76640001aa8f6e/595727bd7c76640001aa8f6e_Images/595727bd7c76640001aa8f6e_Image_28.jpeg,liked,2.642157193,,,,,,,,,,,,,,
,,,,,,,space,3.5672,NAN,,NAN,,0,45,45,45,1,46,Sam,Acc,Participant_Images/595727bd7c76640001aa8f6e/595727bd7c76640001aa8f6e_Images/595727bd7c76640001aa8f6e_Image_15.jpeg,liked,4.456234322,,,,,,,,,,,,,,
,,,,,,,space,1.3625,NAN,,NAN,,0,46,46,46,1,47,Sam,Acc,Participant_Images/595727bd7c76640001aa8f6e/595727bd7c76640001aa8f6e_Images/595727bd7c76640001aa8f6e_Image_17.jpeg,liked,4.438512181,,,,,,,,,,,,,,
,,,,,,,space,1.3497,NAN,,NAN,,0,47,47,47,1,48,Sam,Acc,Participant_Images/595727bd7c76640001aa8f6e/595727bd7c76640001aa8f6e_Images/595727bd7c76640001aa8f6e_Image_12.jpeg,liked,2.682944783,,,,,,,,,,,,,,
,,,,,,,space,1.0234,NAN,,NAN,,0,48,48,48,1,49,Sam,Acc,Participant_Images/595727bd7c76640001aa8f6e/595727bd7c76640001aa8f6e_Images/595727bd7c76640001aa8f6e_Image_14.jpeg,liked,4.51984296,,,,,,,,,,,,,,
,,,,,,,,,,,,,,,,,,,,,,,,c,0,space,1.0388,0,0,0,0,1,1.6665,,,,
,,,,,,,,,NAN,,NAN,,0,49,49,49,1,50,Sam,Acc,Participant_Images/595727bd7c76640001aa8f6e/595727bd7c76640001aa8f6e_Images/595727bd7c76640001aa8f6e_Image_23.jpeg,liked,3.195382774,,,,,,,,,,,,,,
,,,,,,,space,1.0537,NAN,,NAN,,0,50,50,50,1,51,Sam,Acc,Participant_Images/595727bd7c76640001aa8f6e/595727bd7c76640001aa8f6e_Images/595727bd7c76640001aa8f6e_Image_18.jpeg,liked,1.779333479,,,,,,,,,,,,,,
,,,,,,,space,1.6852,NAN,,NAN,,0,51,51,51,1,52,Sam,Acc,Participant_Images/595727bd7c76640001aa8f6e/595727bd7c76640001aa8f6e_Images/595727bd7c76640001aa8f6e_Image_16.jpeg,did not like,4.312468682,,,,,,,,,,,,,,
,,,,,,,space,1.3842,NAN,,NAN,,0,52,52,52,1,53,Sam,Acc,Participant_Images/595727bd7c76640001aa8f6e/595727bd7c76640001aa8f6e_Images/595727bd7c76640001aa8f6e_Image_8.jpeg,liked,4.940433059,,,,,,,,,,,,,,
,,,,,,,space,1.3809,NAN,,NAN,,0,53,53,53,1,54,Sam,Acc,Participant_Images/595727bd7c76640001aa8f6e/595727bd7c76640001aa8f6e_Images/595727bd7c76640001aa8f6e_Image_5.jpeg,did not like,2.7105123,,,,,,,,,,,,,,
,,,,,,,,,,,,,,,,,,,,,,,,s,1,space,1.0366,0,0,0,0,1,2.4055,l,0.7394,,
,,,,,,,,,NAN,,NAN,,0,54,54,54,1,55,Sam,Acc,Participant_Images/595727bd7c76640001aa8f6e/595727bd7c76640001aa8f6e_Images/595727bd7c76640001aa8f6e_Image_2.jpeg,did not like,3.602308302,,,,,,,,,,,,,,
,,,,,,,space,0.6977,NAN,,NAN,,0,55,55,55,1,56,Sam,Acc,Participant_Images/595727bd7c76640001aa8f6e/595727bd7c76640001aa8f6e_Images/595727bd7c76640001aa8f6e_Image_1.jpeg,liked,4.106391878,,,,,,,,,,,,,,
,,,,,,,space,0.9913,NAN,,NAN,,0,56,56,56,1,57,Sam,Acc,Participant_Images/595727bd7c76640001aa8f6e/595727bd7c76640001aa8f6e_Images/595727bd7c76640001aa8f6e_Image_30.jpeg,did not like,3.799433026,,,,,,,,,,,,,,
,,,,,,,space,1.0157,NAN,,NAN,,0,57,57,57,1,58,Sam,Acc,Participant_Images/595727bd7c76640001aa8f6e/595727bd7c76640001aa8f6e_Images/595727bd7c76640001aa8f6e_Image_26.jpeg,did not like,5.246980764,,,,,,,,,,,,,,
,,,,,,,space,1.3351,NAN,,NAN,,0,58,58,58,1,59,Sam,Acc,Participant_Images/595727bd7c76640001aa8f6e/595727bd7c76640001aa8f6e_Images/595727bd7c76640001aa8f6e_Image_13.jpeg,liked,3.30081769,,,,,,,,,,,,,,
,,,,,,,,,,,,,,,,,,,,,,,,c,0,space,1.3452,0,0,0,0,1,1.912,,,,
,,,,,,,,,4,,6,,0,59,59,59,1,60,Sam,Acc,Participant_Images/595727bd7c76640001aa8f6e/595727bd7c76640001aa8f6e_Images/595727bd7c76640001aa8f6e_Image_3.jpeg,did not like,1.661473164,,,,,,,,,,,,,,
,,,,,space,1.7864,space,2.0382,NAN,,NAN,,0,60,60,60,1,61,Alex,Rej,Participant_Images/595727bd7c76640001aa8f6e/595727bd7c76640001aa8f6e_Images/595727bd7c76640001aa8f6e_Image_22.jpeg,liked,3.613205605,,,,,,,,,,,,,,
,,,,,,,space,2.3807,NAN,,NAN,,0,61,61,61,1,62,Alex,Rej,Participant_Images/595727bd7c76640001aa8f6e/595727bd7c76640001aa8f6e_Images/595727bd7c76640001aa8f6e_Image_8.jpeg,did not like,4.988446431,,,,,,,,,,,,,,
,,,,,,,space,1.3754,NAN,,NAN,,0,62,62,62,1,63,Alex,Rej,Participant_Images/595727bd7c76640001aa8f6e/595727bd7c76640001aa8f6e_Images/595727bd7c76640001aa8f6e_Image_4.jpeg,liked,3.470791822,,,,,,,,,,,,,,
,,,,,,,space,1.7319,NAN,,NAN,,0,63,63,63,1,64,Alex,Rej,Participant_Images/595727bd7c76640001aa8f6e/595727bd7c76640001aa8f6e_Images/595727bd7c76640001aa8f6e_Image_12.jpeg,liked,3.820572462,,,,,,,,,,,,,,
,,,,,,,,,,,,,,,,,,,,,,,,c,0,space,2.0499,0,0,0,0,1,2.1715,,,,
,,,,,,,,,NAN,,NAN,,0,64,64,64,1,65,Alex,Rej,Participant_Images/595727bd7c76640001aa8f6e/595727bd7c76640001aa8f6e_Images/595727bd7c76640001aa8f6e_Image_15.jpeg,did not like,2.455989137,,,,,,,,,,,,,,
,,,,,,,space,1.7067,NAN,,NAN,,0,65,65,65,1,66,Alex,Rej,Participant_Images/595727bd7c76640001aa8f6e/595727bd7c76640001aa8f6e_Images/595727bd7c76640001aa8f6e_Image_1.jpeg,did not like,3.79605092,,,,,,,,,,,,,,
,,,,,,,space,1.0177,NAN,,NAN,,0,66,66,66,1,67,Alex,Rej,Participant_Images/595727bd7c76640001aa8f6e/595727bd7c76640001aa8f6e_Images/595727bd7c76640001aa8f6e_Image_26.jpeg,did not like,3.562416326,,,,,,,,,,,,,,
,,,,,,,space,1.3718,NAN,,NAN,,0,67,67,67,1,68,Alex,Rej,Participant_Images/595727bd7c76640001aa8f6e/595727bd7c76640001aa8f6e_Images/595727bd7c76640001aa8f6e_Image_29.jpeg,did not like,2.843822497,,,,,,,,,,,,,,
,,,,,,,space,0.8752,NAN,,NAN,,0,68,68,68,1,69,Alex,Rej,Participant_Images/595727bd7c76640001aa8f6e/595727bd7c76640001aa8f6e_Images/595727bd7c76640001aa8f6e_Image_16.jpeg,did not like,3.546495948,,,,,,,,,,,,,,
,,,,,,,,,,,,,,,,,,,,,,,,c,0,space,1.3926,0,0,0,0,1,1.4279,,,,
,,,,,,,,,NAN,,NAN,,0,69,69,69,1,70,Alex,Rej,Participant_Images/595727bd7c76640001aa8f6e/595727bd7c76640001aa8f6e_Images/595727bd7c76640001aa8f6e_Image_7.jpeg,did not like,1.672012706,,,,,,,,,,,,,,
,,,,,,,space,1.3858,NAN,,NAN,,0,70,70,70,1,71,Alex,Rej,Participant_Images/595727bd7c76640001aa8f6e/595727bd7c76640001aa8f6e_Images/595727bd7c76640001aa8f6e_Image_23.jpeg,did not like,4.942172136,,,,,,,,,,,,,,
,,,,,,,space,1.0437,NAN,,NAN,,0,71,71,71,1,72,Alex,Rej,Participant_Images/595727bd7c76640001aa8f6e/595727bd7c76640001aa8f6e_Images/595727bd7c76640001aa8f6e_Image_3.jpeg,did not like,2.50187214,,,,,,,,,,,,,,
,,,,,,,space,0.6911,NAN,,NAN,,0,72,72,72,1,73,Alex,Rej,Participant_Images/595727bd7c76640001aa8f6e/595727bd7c76640001aa8f6e_Images/595727bd7c76640001aa8f6e_Image_9.jpeg,liked,2.071164779,,,,,,,,,,,,,,
,,,,,,,space,1.0334,NAN,,NAN,,0,73,73,73,1,74,Alex,Rej,Participant_Images/595727bd7c76640001aa8f6e/595727bd7c76640001aa8f6e_Images/595727bd7c76640001aa8f6e_Image_28.jpeg,did not like,5.336503566,,,,,,,,,,,,,,
,,,,,,,,,,,,,,,,,,,,,,,,c,0,space,1.0676,0,0,0,0,1,1.1543,,,,
,,,,,,,,,NAN,,NAN,,0,74,74,74,1,75,Alex,Rej,Participant_Images/595727bd7c76640001aa8f6e/595727bd7c76640001aa8f6e_Images/595727bd7c76640001aa8f6e_Image_11.jpeg,did not like,2.642157193,,,,,,,,,,,,,,
,,,,,,,space,1.0397,NAN,,NAN,,0,75,75,75,1,76,Alex,Rej,Participant_Images/595727bd7c76640001aa8f6e/595727bd7c76640001aa8f6e_Images/595727bd7c76640001aa8f6e_Image_21.jpeg,did not like,4.456234322,,,,,,,,,,,,,,
,,,,,,,space,0.9755,NAN,,NAN,,0,76,76,76,1,77,Alex,Rej,Participant_Images/595727bd7c76640001aa8f6e/595727bd7c76640001aa8f6e_Images/595727bd7c76640001aa8f6e_Image_14.jpeg,did not like,4.438512181,,,,,,,,,,,,,,
,,,,,,,space,2.3485,NAN,,NAN,,0,77,77,77,1,78,Alex,Rej,Participant_Images/595727bd7c76640001aa8f6e/595727bd7c76640001aa8f6e_Images/595727bd7c76640001aa8f6e_Image_27.jpeg,liked,2.682944783,,,,,,,,,,,,,,
,,,,,,,space,1.3837,NAN,,NAN,,0,78,78,78,1,79,Alex,Rej,Participant_Images/595727bd7c76640001aa8f6e/595727bd7c76640001aa8f6e_Images/595727bd7c76640001aa8f6e_Image_2.jpeg,liked,4.51984296,,,,,,,,,,,,,,
,,,,,,,,,,,,,,,,,,,,,,,,c,0,space,0.7156,0,0,0,0,1,2.8389,,,,
,,,,,,,,,NAN,,NAN,,0,79,79,79,1,80,Alex,Rej,Participant_Images/595727bd7c76640001aa8f6e/595727bd7c76640001aa8f6e_Images/595727bd7c76640001aa8f6e_Image_20.jpeg,did not like,3.195382774,,,,,,,,,,,,,,
,,,,,,,space,1.0654,NAN,,NAN,,0,80,80,80,1,81,Alex,Rej,Participant_Images/595727bd7c76640001aa8f6e/595727bd7c76640001aa8f6e_Images/595727bd7c76640001aa8f6e_Image_17.jpeg,did not like,1.779333479,,,,,,,,,,,,,,
,,,,,,,space,0.6766,NAN,,NAN,,0,81,81,81,1,82,Alex,Rej,Participant_Images/595727bd7c76640001aa8f6e/595727bd7c76640001aa8f6e_Images/595727bd7c76640001aa8f6e_Image_30.jpeg,liked,4.312468682,,,,,,,,,,,,,,
,,,,,,,space,1.7126,NAN,,NAN,,0,82,82,82,1,83,Alex,Rej,Participant_Images/595727bd7c76640001aa8f6e/595727bd7c76640001aa8f6e_Images/595727bd7c76640001aa8f6e_Image_13.jpeg,did not like,4.940433059,,,,,,,,,,,,,,
,,,,,,,space,1.7452,NAN,,NAN,,0,83,83,83,1,84,Alex,Rej,Participant_Images/595727bd7c76640001aa8f6e/595727bd7c76640001aa8f6e_Images/595727bd7c76640001aa8f6e_Image_10.jpeg,did not like,2.7105123,,,,,,,,,,,,,,
,,,,,,,,,,,,,,,,,,,,,,,,s,1,space,0.9972,0,0,0,0,1,2.0973,h,1.2797,,
,,,,,,,,,NAN,,NAN,,0,84,84,84,1,85,Alex,Rej,Participant_Images/595727bd7c76640001aa8f6e/595727bd7c76640001aa8f6e_Images/595727bd7c76640001aa8f6e_Image_18.jpeg,did not like,3.602308302,,,,,,,,,,,,,,
,,,,,,,space,1.0406,NAN,,NAN,,0,85,85,85,1,86,Alex,Rej,Participant_Images/595727bd7c76640001aa8f6e/595727bd7c76640001aa8f6e_Images/595727bd7c76640001aa8f6e_Image_19.jpeg,did not like,4.106391878,,,,,,,,,,,,,,
,,,,,,,space,0.7068,NAN,,NAN,,0,86,86,86,1,87,Alex,Rej,Participant_Images/595727bd7c76640001aa8f6e/595727bd7c76640001aa8f6e_Images/595727bd7c76640001aa8f6e_Image_24.jpeg,liked,3.799433026,,,,,,,,,,,,,,
,,,,,,,space,1.9849,NAN,,NAN,,0,87,87,87,1,88,Alex,Rej,Participant_Images/595727bd7c76640001aa8f6e/595727bd7c76640001aa8f6e_Images/595727bd7c76640001aa8f6e_Image_5.jpeg,liked,5.246980764,,,,,,,,,,,,,,
,,,,,,,space,1.0381,NAN,,NAN,,0,88,88,88,1,89,Alex,Rej,Participant_Images/595727bd7c76640001aa8f6e/595727bd7c76640001aa8f6e_Images/595727bd7c76640001aa8f6e_Image_6.jpeg,did not like,3.30081769,,,,,,,,,,,,,,
,,,,,,,,,,,,,,,,,,,,,,,,s,1,space,1.1891,0,0,0,0,1,2.0953,l,1.1061,,
,,,,,,,,,4,,7,,0,89,89,89,1,90,Alex,Rej,Participant_Images/595727bd7c76640001aa8f6e/595727bd7c76640001aa8f6e_Images/595727bd7c76640001aa8f6e_Image_25.jpeg,did not like,1.661473164,,,,,,,,,,,,,,
,,,,,space,2.1199,space,1.3778,NAN,,NAN,,0,90,90,90,1,91,Taylor,Acc,Participant_Images/595727bd7c76640001aa8f6e/595727bd7c76640001aa8f6e_Images/595727bd7c76640001aa8f6e_Image_8.jpeg,liked,3.613205605,,,,,,,,,,,,,,
,,,,,,,space,1.0399,NAN,,NAN,,0,91,91,91,1,92,Taylor,Acc,Participant_Images/595727bd7c76640001aa8f6e/595727bd7c76640001aa8f6e_Images/595727bd7c76640001aa8f6e_Image_19.jpeg,liked,4.988446431,,,,,,,,,,,,,,
,,,,,,,space,1.0498,NAN,,NAN,,0,92,92,92,1,93,Taylor,Acc,Participant_Images/595727bd7c76640001aa8f6e/595727bd7c76640001aa8f6e_Images/595727bd7c76640001aa8f6e_Image_26.jpeg,did not like,3.470791822,,,,,,,,,,,,,,
,,,,,,,space,1.0451,NAN,,NAN,,0,93,93,93,1,94,Taylor,Acc,Participant_Images/595727bd7c76640001aa8f6e/595727bd7c76640001aa8f6e_Images/595727bd7c76640001aa8f6e_Image_16.jpeg,liked,3.820572462,,,,,,,,,,,,,,
,,,,,,,,,,,,,,,,,,,,,,,,c,0,space,1.4096,0,0,0,0,1,1.9033,,,,
,,,,,,,,,NAN,,NAN,,0,94,94,94,1,95,Taylor,Acc,Participant_Images/595727bd7c76640001aa8f6e/595727bd7c76640001aa8f6e_Images/595727bd7c76640001aa8f6e_Image_23.jpeg,liked,2.455989137,,,,,,,,,,,,,,
,,,,,,,space,1.023,NAN,,NAN,,0,95,95,95,1,96,Taylor,Acc,Participant_Images/595727bd7c76640001aa8f6e/595727bd7c76640001aa8f6e_Images/595727bd7c76640001aa8f6e_Image_28.jpeg,did not like,3.79605092,,,,,,,,,,,,,,
,,,,,,,space,1.099,NAN,,NAN,,0,96,96,96,1,97,Taylor,Acc,Participant_Images/595727bd7c76640001aa8f6e/595727bd7c76640001aa8f6e_Images/595727bd7c76640001aa8f6e_Image_22.jpeg,did not like,3.562416326,,,,,,,,,,,,,,
,,,,,,,space,1.0596,NAN,,NAN,,0,97,97,97,1,98,Taylor,Acc,Participant_Images/595727bd7c76640001aa8f6e/595727bd7c76640001aa8f6e_Images/595727bd7c76640001aa8f6e_Image_13.jpeg,did not like,2.843822497,,,,,,,,,,,,,,
,,,,,,,space,2.0879,NAN,,NAN,,0,98,98,98,1,99,Taylor,Acc,Participant_Images/595727bd7c76640001aa8f6e/595727bd7c76640001aa8f6e_Images/595727bd7c76640001aa8f6e_Image_14.jpeg,liked,3.546495948,,,,,,,,,,,,,,
,,,,,,,,,,,,,,,,,,,,,,,,c,0,space,4.3117,0,0,0,0,1,2.4047,,,,
,,,,,,,,,NAN,,NAN,,0,99,99,99,1,100,Taylor,Acc,Participant_Images/595727bd7c76640001aa8f6e/595727bd7c76640001aa8f6e_Images/595727bd7c76640001aa8f6e_Image_3.jpeg,did not like,1.672012706,,,,,,,,,,,,,,
,,,,,,,space,0.7373,NAN,,NAN,,0,100,100,100,1,101,Taylor,Acc,Participant_Images/595727bd7c76640001aa8f6e/595727bd7c76640001aa8f6e_Images/595727bd7c76640001aa8f6e_Image_27.jpeg,liked,4.942172136,,,,,,,,,,,,,,
,,,,,,,space,0.6908,NAN,,NAN,,0,101,101,101,1,102,Taylor,Acc,Participant_Images/595727bd7c76640001aa8f6e/595727bd7c76640001aa8f6e_Images/595727bd7c76640001aa8f6e_Image_1.jpeg,liked,2.50187214,,,,,,,,,,,,,,
,,,,,,,space,1.392,NAN,,NAN,,0,102,102,102,1,103,Taylor,Acc,Participant_Images/595727bd7c76640001aa8f6e/595727bd7c76640001aa8f6e_Images/595727bd7c76640001aa8f6e_Image_21.jpeg,liked,2.071164779,,,,,,,,,,,,,,
,,,,,,,space,2.1884,NAN,,NAN,,0,103,103,103,1,104,Taylor,Acc,Participant_Images/595727bd7c76640001aa8f6e/595727bd7c76640001aa8f6e_Images/595727bd7c76640001aa8f6e_Image_29.jpeg,liked,5.336503566,,,,,,,,,,,,,,
,,,,,,,,,,,,,,,,,,,,,,,,c,0,space,1.6875,0,0,0,0,1,1.1363,,,,
,,,,,,,,,NAN,,NAN,,0,104,104,104,1,105,Taylor,Acc,Participant_Images/595727bd7c76640001aa8f6e/595727bd7c76640001aa8f6e_Images/595727bd7c76640001aa8f6e_Image_30.jpeg,liked,2.642157193,,,,,,,,,,,,,,
,,,,,,,space,0.6974,NAN,,NAN,,0,105,105,105,1,106,Taylor,Acc,Participant_Images/595727bd7c76640001aa8f6e/595727bd7c76640001aa8f6e_Images/595727bd7c76640001aa8f6e_Image_6.jpeg,liked,4.456234322,,,,,,,,,,,,,,
,,,,,,,space,0.7377,NAN,,NAN,,0,106,106,106,1,107,Taylor,Acc,Participant_Images/595727bd7c76640001aa8f6e/595727bd7c76640001aa8f6e_Images/595727bd7c76640001aa8f6e_Image_25.jpeg,did not like,4.438512181,,,,,,,,,,,,,,
,,,,,,,space,1.0829,NAN,,NAN,,0,107,107,107,1,108,Taylor,Acc,Participant_Images/595727bd7c76640001aa8f6e/595727bd7c76640001aa8f6e_Images/595727bd7c76640001aa8f6e_Image_4.jpeg,liked,2.682944783,,,,,,,,,,,,,,
,,,,,,,space,1.3506,NAN,,NAN,,0,108,108,108,1,109,Taylor,Acc,Participant_Images/595727bd7c76640001aa8f6e/595727bd7c76640001aa8f6e_Images/595727bd7c76640001aa8f6e_Image_18.jpeg,liked,4.51984296,,,,,,,,,,,,,,
,,,,,,,,,,,,,,,,,,,,,,,,c,0,space,1.0708,0,0,0,0,1,1.1239,,,,
,,,,,,,,,NAN,,NAN,,0,109,109,109,1,110,Taylor,Acc,Participant_Images/595727bd7c76640001aa8f6e/595727bd7c76640001aa8f6e_Images/595727bd7c76640001aa8f6e_Image_24.jpeg,liked,3.195382774,,,,,,,,,,,,,,
,,,,,,,space,1.0811,NAN,,NAN,,0,110,110,110,1,111,Taylor,Acc,Participant_Images/595727bd7c76640001aa8f6e/595727bd7c76640001aa8f6e_Images/595727bd7c76640001aa8f6e_Image_7.jpeg,did not like,1.779333479,,,,,,,,,,,,,,
,,,,,,,space,1.0685,NAN,,NAN,,0,111,111,111,1,112,Taylor,Acc,Participant_Images/595727bd7c76640001aa8f6e/595727bd7c76640001aa8f6e_Images/595727bd7c76640001aa8f6e_Image_12.jpeg,liked,4.312468682,,,,,,,,,,,,,,
,,,,,,,space,0.708,NAN,,NAN,,0,112,112,112,1,113,Taylor,Acc,Participant_Images/595727bd7c76640001aa8f6e/595727bd7c76640001aa8f6e_Images/595727bd7c76640001aa8f6e_Image_5.jpeg,did not like,4.940433059,,,,,,,,,,,,,,
,,,,,,,space,0.7648,NAN,,NAN,,0,113,113,113,1,114,Taylor,Acc,Participant_Images/595727bd7c76640001aa8f6e/595727bd7c76640001aa8f6e_Images/595727bd7c76640001aa8f6e_Image_10.jpeg,liked,2.7105123,,,,,,,,,,,,,,
,,,,,,,,,,,,,,,,,,,,,,,,s,1,space,1.0288,0,0,0,0,1,1.8056,l,1.3127,,
,,,,,,,,,NAN,,NAN,,0,114,114,114,1,115,Taylor,Acc,Participant_Images/595727bd7c76640001aa8f6e/595727bd7c76640001aa8f6e_Images/595727bd7c76640001aa8f6e_Image_17.jpeg,liked,3.602308302,,,,,,,,,,,,,,
,,,,,,,space,0.698,NAN,,NAN,,0,115,115,115,1,116,Taylor,Acc,Participant_Images/595727bd7c76640001aa8f6e/595727bd7c76640001aa8f6e_Images/595727bd7c76640001aa8f6e_Image_2.jpeg,liked,4.106391878,,,,,,,,,,,,,,
,,,,,,,space,1.085,NAN,,NAN,,0,116,116,116,1,117,Taylor,Acc,Participant_Images/595727bd7c76640001aa8f6e/595727bd7c76640001aa8f6e_Images/595727bd7c76640001aa8f6e_Image_9.jpeg,did not like,3.799433026,,,,,,,,,,,,,,
,,,,,,,space,1.4476,NAN,,NAN,,0,117,117,117,1,118,Taylor,Acc,Participant_Images/595727bd7c76640001aa8f6e/595727bd7c76640001aa8f6e_Images/595727bd7c76640001aa8f6e_Image_20.jpeg,liked,5.246980764,,,,,,,,,,,,,,
,,,,,,,space,1.789,NAN,,NAN,,0,118,118,118,1,119,Taylor,Acc,Participant_Images/595727bd7c76640001aa8f6e/595727bd7c76640001aa8f6e_Images/595727bd7c76640001aa8f6e_Image_15.jpeg,liked,3.30081769,,,,,,,,,,,,,,
,,,,,,,,,,,,,,,,,,,,,,,,s,1,space,0.7177,0,0,0,0,1,1.4779,h,1.0175,,
,,,,,,,,,4,,6,,0,119,119,119,1,120,Taylor,Acc,Participant_Images/595727bd7c76640001aa8f6e/595727bd7c76640001aa8f6e_Images/595727bd7c76640001aa8f6e_Image_11.jpeg,liked,1.661473164,,,,,,,,,,,,,,
,,,,,space,26.2878,space,1.1173,NAN,,NAN,,0,120,120,120,1,121,Charlie,Rej,Participant_Images/595727bd7c76640001aa8f6e/595727bd7c76640001aa8f6e_Images/595727bd7c76640001aa8f6e_Image_11.jpeg,did not like,3.613205605,,,,,,,,,,,,,,
,,,,,,,space,5.1799,NAN,,NAN,,0,121,121,121,1,122,Charlie,Rej,Participant_Images/595727bd7c76640001aa8f6e/595727bd7c76640001aa8f6e_Images/595727bd7c76640001aa8f6e_Image_21.jpeg,liked,4.988446431,,,,,,,,,,,,,,
,,,,,,,space,1.3807,NAN,,NAN,,0,122,122,122,1,123,Charlie,Rej,Participant_Images/595727bd7c76640001aa8f6e/595727bd7c76640001aa8f6e_Images/595727bd7c76640001aa8f6e_Image_9.jpeg,did not like,3.470791822,,,,,,,,,,,,,,
,,,,,,,space,1.0589,NAN,,NAN,,0,123,123,123,1,124,Charlie,Rej,Participant_Images/595727bd7c76640001aa8f6e/595727bd7c76640001aa8f6e_Images/595727bd7c76640001aa8f6e_Image_16.jpeg,liked,3.820572462,,,,,,,,,,,,,,
,,,,,,,,,,,,,,,,,,,,,,,,c,0,space,1.0764,0,0,0,0,1,2.7269,,,,
,,,,,,,,,NAN,,NAN,,0,124,124,124,1,125,Charlie,Rej,Participant_Images/595727bd7c76640001aa8f6e/595727bd7c76640001aa8f6e_Images/595727bd7c76640001aa8f6e_Image_15.jpeg,did not like,2.455989137,,,,,,,,,,,,,,
,,,,,,,space,1.3747,NAN,,NAN,,0,125,125,125,1,126,Charlie,Rej,Participant_Images/595727bd7c76640001aa8f6e/595727bd7c76640001aa8f6e_Images/595727bd7c76640001aa8f6e_Image_7.jpeg,did not like,3.79605092,,,,,,,,,,,,,,
,,,,,,,space,1.3992,NAN,,NAN,,0,126,126,126,1,127,Charlie,Rej,Participant_Images/595727bd7c76640001aa8f6e/595727bd7c76640001aa8f6e_Images/595727bd7c76640001aa8f6e_Image_22.jpeg,did not like,3.562416326,,,,,,,,,,,,,,
,,,,,,,space,0.7352,NAN,,NAN,,0,127,127,127,1,128,Charlie,Rej,Participant_Images/595727bd7c76640001aa8f6e/595727bd7c76640001aa8f6e_Images/595727bd7c76640001aa8f6e_Image_17.jpeg,liked,2.843822497,,,,,,,,,,,,,,
,,,,,,,space,1.6912,NAN,,NAN,,0,128,128,128,1,129,Charlie,Rej,Participant_Images/595727bd7c76640001aa8f6e/595727bd7c76640001aa8f6e_Images/595727bd7c76640001aa8f6e_Image_5.jpeg,liked,3.546495948,,,,,,,,,,,,,,
,,,,,,,,,,,,,,,,,,,,,,,,s,1,space,1.0084,0,0,0,0,1,2.1507,l,2.3311,,
,,,,,,,,,NAN,,NAN,,0,129,129,129,1,130,Charlie,Rej,Participant_Images/595727bd7c76640001aa8f6e/595727bd7c76640001aa8f6e_Images/595727bd7c76640001aa8f6e_Image_26.jpeg,did not like,1.672012706,,,,,,,,,,,,,,
,,,,,,,space,1.0991,NAN,,NAN,,0,130,130,130,1,131,Charlie,Rej,Participant_Images/595727bd7c76640001aa8f6e/595727bd7c76640001aa8f6e_Images/595727bd7c76640001aa8f6e_Image_6.jpeg,did not like,4.942172136,,,,,,,,,,,,,,
,,,,,,,space,0.6818,NAN,,NAN,,0,131,131,131,1,132,Charlie,Rej,Participant_Images/595727bd7c76640001aa8f6e/595727bd7c76640001aa8f6e_Images/595727bd7c76640001aa8f6e_Image_13.jpeg,did not like,2.50187214,,,,,,,,,,,,,,
,,,,,,,space,0.7341,NAN,,NAN,,0,132,132,132,1,133,Charlie,Rej,Participant_Images/595727bd7c76640001aa8f6e/595727bd7c76640001aa8f6e_Images/595727bd7c76640001aa8f6e_Image_24.jpeg,did not like,2.071164779,,,,,,,,,,,,,,
,,,,,,,space,3.0093,NAN,,NAN,,0,133,133,133,1,134,Charlie,Rej,Participant_Images/595727bd7c76640001aa8f6e/595727bd7c76640001aa8f6e_Images/595727bd7c76640001aa8f6e_Image_30.jpeg,did not like,5.336503566,,,,,,,,,,,,,,
,,,,,,,,,,,,,,,,,,,,,,,,c,0,space,1.3967,0,0,0,0,1,2.8801,,,,
,,,,,,,,,NAN,,NAN,,0,134,134,134,1,135,Charlie,Rej,Participant_Images/595727bd7c76640001aa8f6e/595727bd7c76640001aa8f6e_Images/595727bd7c76640001aa8f6e_Image_8.jpeg,did not like,2.642157193,,,,,,,,,,,,,,
,,,,,,,space,1.0668,NAN,,NAN,,0,135,135,135,1,136,Charlie,Rej,Participant_Images/595727bd7c76640001aa8f6e/595727bd7c76640001aa8f6e_Images/595727bd7c76640001aa8f6e_Image_27.jpeg,liked,4.456234322,,,,,,,,,,,,,,
,,,,,,,space,1.3317,NAN,,NAN,,0,136,136,136,1,137,Charlie,Rej,Participant_Images/595727bd7c76640001aa8f6e/595727bd7c76640001aa8f6e_Images/595727bd7c76640001aa8f6e_Image_3.jpeg,did not like,4.438512181,,,,,,,,,,,,,,
,,,,,,,space,0.7326,NAN,,NAN,,0,137,137,137,1,138,Charlie,Rej,Participant_Images/595727bd7c76640001aa8f6e/595727bd7c76640001aa8f6e_Images/595727bd7c76640001aa8f6e_Image_20.jpeg,did not like,2.682944783,,,,,,,,,,,,,,
,,,,,,,space,0.7259,NAN,,NAN,,0,138,138,138,1,139,Charlie,Rej,Participant_Images/595727bd7c76640001aa8f6e/595727bd7c76640001aa8f6e_Images/595727bd7c76640001aa8f6e_Image_29.jpeg,did not like,4.51984296,,,,,,,,,,,,,,
,,,,,,,,,,,,,,,,,,,,,,,,c,0,space,1.0624,0,0,0,0,1,1.7693,,,,
,,,,,,,,,NAN,,NAN,,0,139,139,139,1,140,Charlie,Rej,Participant_Images/595727bd7c76640001aa8f6e/595727bd7c76640001aa8f6e_Images/595727bd7c76640001aa8f6e_Image_19.jpeg,did not like,3.195382774,,,,,,,,,,,,,,
,,,,,,,space,0.8089,NAN,,NAN,,0,140,140,140,1,141,Charlie,Rej,Participant_Images/595727bd7c76640001aa8f6e/595727bd7c76640001aa8f6e_Images/595727bd7c76640001aa8f6e_Image_12.jpeg,liked,1.779333479,,,,,,,,,,,,,,
,,,,,,,space,3.3941,NAN,,NAN,,0,141,141,141,1,142,Charlie,Rej,Participant_Images/595727bd7c76640001aa8f6e/595727bd7c76640001aa8f6e_Images/595727bd7c76640001aa8f6e_Image_1.jpeg,did not like,4.312468682,,,,,,,,,,,,,,
,,,,,,,space,4.6376,NAN,,NAN,,0,142,142,142,1,143,Charlie,Rej,Participant_Images/595727bd7c76640001aa8f6e/595727bd7c76640001aa8f6e_Images/595727bd7c76640001aa8f6e_Image_23.jpeg,did not like,4.940433059,,,,,,,,,,,,,,
,,,,,,,space,0.7814,NAN,,NAN,,0,143,143,143,1,144,Charlie,Rej,Participant_Images/595727bd7c76640001aa8f6e/595727bd7c76640001aa8f6e_Images/595727bd7c76640001aa8f6e_Image_10.jpeg,did not like,2.7105123,,,,,,,,,,,,,,
,,,,,,,,,,,,,,,,,,,,,,,,c,0,space,1.0634,0,0,0,0,1,1.4349,,,,
,,,,,,,,,NAN,,NAN,,0,144,144,144,1,145,Charlie,Rej,Participant_Images/595727bd7c76640001aa8f6e/595727bd7c76640001aa8f6e_Images/595727bd7c76640001aa8f6e_Image_25.jpeg,did not like,3.602308302,,,,,,,,,,,,,,
,,,,,,,space,1.4036,NAN,,NAN,,0,145,145,145,1,146,Charlie,Rej,Participant_Images/595727bd7c76640001aa8f6e/595727bd7c76640001aa8f6e_Images/595727bd7c76640001aa8f6e_Image_14.jpeg,liked,4.106391878,,,,,,,,,,,,,,
,,,,,,,space,1.3421,NAN,,NAN,,0,146,146,146,1,147,Charlie,Rej,Participant_Images/595727bd7c76640001aa8f6e/595727bd7c76640001aa8f6e_Images/595727bd7c76640001aa8f6e_Image_18.jpeg,liked,3.799433026,,,,,,,,,,,,,,
,,,,,,,space,1.0103,NAN,,NAN,,0,147,147,147,1,148,Charlie,Rej,Participant_Images/595727bd7c76640001aa8f6e/595727bd7c76640001aa8f6e_Images/595727bd7c76640001aa8f6e_Image_28.jpeg,liked,5.246980764,,,,,,,,,,,,,,
,,,,,,,space,1.0461,NAN,,NAN,,0,148,148,148,1,149,Charlie,Rej,Participant_Images/595727bd7c76640001aa8f6e/595727bd7c76640001aa8f6e_Images/595727bd7c76640001aa8f6e_Image_4.jpeg,did not like,3.30081769,,,,,,,,,,,,,,
,,,,,,,,,,,,,,,,,,,,,,,,c,0,space,1.1918,0,0,0,0,1,1.75,,,,
,,,,,,,,,4,,7,,0,149,149,149,1,150,Charlie,Rej,Participant_Images/595727bd7c76640001aa8f6e/595727bd7c76640001aa8f6e_Images/595727bd7c76640001aa8f6e_Image_2.jpeg,did not like,1.661473164,,,,,,,,,,,,,,
,,,,,,,,,,,,,,,,,,,,,,,,,,,,,,,,,,,,space,3.3735
