PROLIFIC_ID,endwelcomescreen_keys.keys,endwelcomescreen_keys.rt,endinstructionscreen_keys.keys,endinstructionscreen_keys.rt,endpartnermatch_keys.keys,endpartnermatch_keys.rt,sharenextphoto_key.keys,sharenextphoto_key.rt,salience_rating,key_resp.keys,stress_level,stresslevel_keypress.keys,entiretaskloop.thisRepN,entiretaskloop.thisTrialN,entiretaskloop.thisN,entiretaskloop.thisIndex,entiretaskloop.ran,TrialNumber,Partner,Condition,Photos,Feedback,FeedbackWait,choice_keys.keys,playlottery,resumeafterlottery_keys.keys,resumeafterlottery_keys.rt,lotteryloop.thisRepN,lotteryloop.thisTrialN,lotteryloop.thisN,lotteryloop.thisIndex,lotteryloop.ran,choice_keys.rt,lotteryguess_keys.keys,lotteryguess_keys.rt,end_screen_keys.keys,end_screen_keys.rt
5ad2c8334d061300011b1985,space,17.2444,,,,,,,,,,,,,,,,,,,,,,,,,,,,,,,,,,,
5ad2c8334d061300011b1985,,,,,,,,,,,,,,,,,,,,,,,,,,,,,,,,,,,,,
5ad2c8334d061300011b1985,,,space,12.7388,,,,,,,,,,,,,,,,,,,,,,,,,,,,,,,,,
5ad2c8334d061300011b1985,,,,,space,2.4219,space,1.6812,NAN,,NAN,,0.0,0.0,0.0,0.0,1.0,1.0,Taylor,Acc,Participant_Images/5ad2c8334d061300011b1985/5ad2c8334d061300011b1985_Images/5ad2c8334d061300011b1985_Image_8.jpeg,did not like,3.613205605,,,,,,,,,,,,,,
5ad2c8334d061300011b1985,,,,,,,space,1.3323,NAN,,NAN,,0.0,1.0,1.0,1.0,1.0,2.0,Taylor,Acc,Participant_Images/5ad2c8334d061300011b1985/5ad2c8334d061300011b1985_Images/5ad2c8334d061300011b1985_Image_4.jpeg,did not like,4.988446431,,,,,,,,,,,,,,
5ad2c8334d061300011b1985,,,,,,,space,1.6732,NAN,,NAN,,0.0,2.0,2.0,2.0,1.0,3.0,Taylor,Acc,Participant_Images/5ad2c8334d061300011b1985/5ad2c8334d061300011b1985_Images/5ad2c8334d061300011b1985_Image_23.jpeg,liked,3.470791822,,,,,,,,,,,,,,
5ad2c8334d061300011b1985,,,,,,,space,1.0149,NAN,,NAN,,0.0,3.0,3.0,3.0,1.0,4.0,Taylor,Acc,Participant_Images/5ad2c8334d061300011b1985/5ad2c8334d061300011b1985_Images/5ad2c8334d061300011b1985_Image_11.jpeg,did not like,3.820572462,,,,,,,,,,,,,,
5ad2c8334d061300011b1985,,,,,,,,,,,,,,,,,,,,,,,,,999.0,space,3.042,0.0,0.0,0.0,0.0,1.0,,,,,
5ad2c8334d061300011b1985,,,,,,,,,NAN,,NAN,,0.0,4.0,4.0,4.0,1.0,5.0,Taylor,Acc,Participant_Images/5ad2c8334d061300011b1985/5ad2c8334d061300011b1985_Images/5ad2c8334d061300011b1985_Image_17.jpeg,liked,2.455989137,,,,,,,,,,,,,,
5ad2c8334d061300011b1985,,,,,,,space,1.1883,NAN,,NAN,,0.0,5.0,5.0,5.0,1.0,6.0,Taylor,Acc,Participant_Images/5ad2c8334d061300011b1985/5ad2c8334d061300011b1985_Images/5ad2c8334d061300011b1985_Image_12.jpeg,did not like,3.79605092,,,,,,,,,,,,,,
5ad2c8334d061300011b1985,,,,,,,space,0.259,NAN,,NAN,,0.0,6.0,6.0,6.0,1.0,7.0,Taylor,Acc,Participant_Images/5ad2c8334d061300011b1985/5ad2c8334d061300011b1985_Images/5ad2c8334d061300011b1985_Image_6.jpeg,liked,3.562416326,,,,,,,,,,,,,,
5ad2c8334d061300011b1985,,,,,,,space,1.0485,NAN,,NAN,,0.0,7.0,7.0,7.0,1.0,8.0,Taylor,Acc,Participant_Images/5ad2c8334d061300011b1985/5ad2c8334d061300011b1985_Images/5ad2c8334d061300011b1985_Image_10.jpeg,liked,2.843822497,,,,,,,,,,,,,,
5ad2c8334d061300011b1985,,,,,,,space,0.5499,NAN,,NAN,,0.0,8.0,8.0,8.0,1.0,9.0,Taylor,Acc,Participant_Images/5ad2c8334d061300011b1985/5ad2c8334d061300011b1985_Images/5ad2c8334d061300011b1985_Image_20.jpeg,liked,3.546495948,,,,,,,,,,,,,,
5ad2c8334d061300011b1985,,,,,,,,,,,,,,,,,,,,,,,,s,1.0,space,0.6575,0.0,0.0,0.0,0.0,1.0,3.6227,,,,
5ad2c8334d061300011b1985,,,,,,,,,NAN,,NAN,,0.0,9.0,9.0,9.0,1.0,10.0,Taylor,Acc,Participant_Images/5ad2c8334d061300011b1985/5ad2c8334d061300011b1985_Images/5ad2c8334d061300011b1985_Image_14.jpeg,liked,1.672012706,,,,,,,,,,,,,,
5ad2c8334d061300011b1985,,,,,,,space,0.5656,NAN,,NAN,,0.0,10.0,10.0,10.0,1.0,11.0,Taylor,Acc,Participant_Images/5ad2c8334d061300011b1985/5ad2c8334d061300011b1985_Images/5ad2c8334d061300011b1985_Image_7.jpeg,liked,4.942172136,,,,,,,,,,,,,,
5ad2c8334d061300011b1985,,,,,,,space,0.8506,NAN,,NAN,,0.0,11.0,11.0,11.0,1.0,12.0,Taylor,Acc,Participant_Images/5ad2c8334d061300011b1985/5ad2c8334d061300011b1985_Images/5ad2c8334d061300011b1985_Image_19.jpeg,liked,2.50187214,,,,,,,,,,,,,,
5ad2c8334d061300011b1985,,,,,,,space,0.507,NAN,,NAN,,0.0,12.0,12.0,12.0,1.0,13.0,Taylor,Acc,Participant_Images/5ad2c8334d061300011b1985/5ad2c8334d061300011b1985_Images/5ad2c8334d061300011b1985_Image_29.jpeg,did not like,2.071164779,,,,,,,,,,,,,,
5ad2c8334d061300011b1985,,,,,,,space,0.5095,NAN,,NAN,,0.0,13.0,13.0,13.0,1.0,14.0,Taylor,Acc,Participant_Images/5ad2c8334d061300011b1985/5ad2c8334d061300011b1985_Images/5ad2c8334d061300011b1985_Image_9.jpeg,liked,5.336503566,,,,,,,,,,,,,,
5ad2c8334d061300011b1985,,,,,,,,,,,,,,,,,,,,,,,,s,1.0,space,0.7258,0.0,0.0,0.0,0.0,1.0,1.9145,h,0.7181,,
5ad2c8334d061300011b1985,,,,,,,,,NAN,,NAN,,0.0,14.0,14.0,14.0,1.0,15.0,Taylor,Acc,Participant_Images/5ad2c8334d061300011b1985/5ad2c8334d061300011b1985_Images/5ad2c8334d061300011b1985_Image_3.jpeg,liked,2.642157193,,,,,,,,,,,,,,
5ad2c8334d061300011b1985,,,,,,,space,0.7271,NAN,,NAN,,0.0,15.0,15.0,15.0,1.0,16.0,Taylor,Acc,Participant_Images/5ad2c8334d061300011b1985/5ad2c8334d061300011b1985_Images/5ad2c8334d061300011b1985_Image_13.jpeg,did not like,4.456234322,,,,,,,,,,,,,,
5ad2c8334d061300011b1985,,,,,,,space,0.609,NAN,,NAN,,0.0,16.0,16.0,16.0,1.0,17.0,Taylor,Acc,Participant_Images/5ad2c8334d061300011b1985/5ad2c8334d061300011b1985_Images/5ad2c8334d061300011b1985_Image_24.jpeg,liked,4.438512181,,,,,,,,,,,,,,
5ad2c8334d061300011b1985,,,,,,,space,0.5065,NAN,,NAN,,0.0,17.0,17.0,17.0,1.0,18.0,Taylor,Acc,Participant_Images/5ad2c8334d061300011b1985/5ad2c8334d061300011b1985_Images/5ad2c8334d061300011b1985_Image_26.jpeg,liked,2.682944783,,,,,,,,,,,,,,
5ad2c8334d061300011b1985,,,,,,,space,0.5202,NAN,,NAN,,0.0,18.0,18.0,18.0,1.0,19.0,Taylor,Acc,Participant_Images/5ad2c8334d061300011b1985/5ad2c8334d061300011b1985_Images/5ad2c8334d061300011b1985_Image_27.jpeg,liked,4.51984296,,,,,,,,,,,,,,
5ad2c8334d061300011b1985,,,,,,,,,,,,,,,,,,,,,,,,s,1.0,space,0.7722,0.0,0.0,0.0,0.0,1.0,1.3628,h,0.4587,,
5ad2c8334d061300011b1985,,,,,,,,,NAN,,NAN,,0.0,19.0,19.0,19.0,1.0,20.0,Taylor,Acc,Participant_Images/5ad2c8334d061300011b1985/5ad2c8334d061300011b1985_Images/5ad2c8334d061300011b1985_Image_30.jpeg,liked,3.195382774,,,,,,,,,,,,,,
5ad2c8334d061300011b1985,,,,,,,space,1.2113,NAN,,NAN,,0.0,20.0,20.0,20.0,1.0,21.0,Taylor,Acc,Participant_Images/5ad2c8334d061300011b1985/5ad2c8334d061300011b1985_Images/5ad2c8334d061300011b1985_Image_21.jpeg,did not like,1.779333479,,,,,,,,,,,,,,
5ad2c8334d061300011b1985,,,,,,,space,1.2812,NAN,,NAN,,0.0,21.0,21.0,21.0,1.0,22.0,Taylor,Acc,Participant_Images/5ad2c8334d061300011b1985/5ad2c8334d061300011b1985_Images/5ad2c8334d061300011b1985_Image_25.jpeg,did not like,4.312468682,,,,,,,,,,,,,,
5ad2c8334d061300011b1985,,,,,,,space,0.5918,NAN,,NAN,,0.0,22.0,22.0,22.0,1.0,23.0,Taylor,Acc,Participant_Images/5ad2c8334d061300011b1985/5ad2c8334d061300011b1985_Images/5ad2c8334d061300011b1985_Image_18.jpeg,liked,4.940433059,,,,,,,,,,,,,,
5ad2c8334d061300011b1985,,,,,,,space,0.44,NAN,,NAN,,0.0,23.0,23.0,23.0,1.0,24.0,Taylor,Acc,Participant_Images/5ad2c8334d061300011b1985/5ad2c8334d061300011b1985_Images/5ad2c8334d061300011b1985_Image_5.jpeg,liked,2.7105123,,,,,,,,,,,,,,
5ad2c8334d061300011b1985,,,,,,,,,,,,,,,,,,,,,,,,c,0.0,space,0.5758,0.0,0.0,0.0,0.0,1.0,2.4883,,,,
5ad2c8334d061300011b1985,,,,,,,,,NAN,,NAN,,0.0,24.0,24.0,24.0,1.0,25.0,Taylor,Acc,Participant_Images/5ad2c8334d061300011b1985/5ad2c8334d061300011b1985_Images/5ad2c8334d061300011b1985_Image_15.jpeg,liked,3.602308302,,,,,,,,,,,,,,
5ad2c8334d061300011b1985,,,,,,,space,0.4683,NAN,,NAN,,0.0,25.0,25.0,25.0,1.0,26.0,Taylor,Acc,Participant_Images/5ad2c8334d061300011b1985/5ad2c8334d061300011b1985_Images/5ad2c8334d061300011b1985_Image_2.jpeg,did not like,4.106391878,,,,,,,,,,,,,,
5ad2c8334d061300011b1985,,,,,,,space,0.4559,NAN,,NAN,,0.0,26.0,26.0,26.0,1.0,27.0,Taylor,Acc,Participant_Images/5ad2c8334d061300011b1985/5ad2c8334d061300011b1985_Images/5ad2c8334d061300011b1985_Image_1.jpeg,liked,3.799433026,,,,,,,,,,,,,,
5ad2c8334d061300011b1985,,,,,,,space,0.5393,NAN,,NAN,,0.0,27.0,27.0,27.0,1.0,28.0,Taylor,Acc,Participant_Images/5ad2c8334d061300011b1985/5ad2c8334d061300011b1985_Images/5ad2c8334d061300011b1985_Image_22.jpeg,liked,5.246980764,,,,,,,,,,,,,,
5ad2c8334d061300011b1985,,,,,,,space,0.4471,NAN,,NAN,,0.0,28.0,28.0,28.0,1.0,29.0,Taylor,Acc,Participant_Images/5ad2c8334d061300011b1985/5ad2c8334d061300011b1985_Images/5ad2c8334d061300011b1985_Image_28.jpeg,liked,3.30081769,,,,,,,,,,,,,,
5ad2c8334d061300011b1985,,,,,,,,,,,,,,,,,,,,,,,,c,0.0,space,0.549,0.0,0.0,0.0,0.0,1.0,0.7816,,,,
5ad2c8334d061300011b1985,,,,,,,,,5,,3,,0.0,29.0,29.0,29.0,1.0,30.0,Taylor,Acc,Participant_Images/5ad2c8334d061300011b1985/5ad2c8334d061300011b1985_Images/5ad2c8334d061300011b1985_Image_16.jpeg,liked,1.661473164,,,,,,,,,,,,,,
5ad2c8334d061300011b1985,,,,,space,1.9126,space,1.019,NAN,,NAN,,0.0,30.0,30.0,30.0,1.0,31.0,Riley,Acc,Participant_Images/5ad2c8334d061300011b1985/5ad2c8334d061300011b1985_Images/5ad2c8334d061300011b1985_Image_24.jpeg,liked,3.613205605,,,,,,,,,,,,,,
5ad2c8334d061300011b1985,,,,,,,space,1.1314,NAN,,NAN,,0.0,31.0,31.0,31.0,1.0,32.0,Riley,Acc,Participant_Images/5ad2c8334d061300011b1985/5ad2c8334d061300011b1985_Images/5ad2c8334d061300011b1985_Image_30.jpeg,liked,4.988446431,,,,,,,,,,,,,,
5ad2c8334d061300011b1985,,,,,,,space,1.1024,NAN,,NAN,,0.0,32.0,32.0,32.0,1.0,33.0,Riley,Acc,Participant_Images/5ad2c8334d061300011b1985/5ad2c8334d061300011b1985_Images/5ad2c8334d061300011b1985_Image_27.jpeg,liked,3.470791822,,,,,,,,,,,,,,
5ad2c8334d061300011b1985,,,,,,,space,0.9637,NAN,,NAN,,0.0,33.0,33.0,33.0,1.0,34.0,Riley,Acc,Participant_Images/5ad2c8334d061300011b1985/5ad2c8334d061300011b1985_Images/5ad2c8334d061300011b1985_Image_9.jpeg,did not like,3.820572462,,,,,,,,,,,,,,
5ad2c8334d061300011b1985,,,,,,,,,,,,,,,,,,,,,,,,c,0.0,space,1.3994,0.0,0.0,0.0,0.0,1.0,1.0907,,,,
5ad2c8334d061300011b1985,,,,,,,,,NAN,,NAN,,0.0,34.0,34.0,34.0,1.0,35.0,Riley,Acc,Participant_Images/5ad2c8334d061300011b1985/5ad2c8334d061300011b1985_Images/5ad2c8334d061300011b1985_Image_25.jpeg,did not like,2.455989137,,,,,,,,,,,,,,
5ad2c8334d061300011b1985,,,,,,,space,0.9783,NAN,,NAN,,0.0,35.0,35.0,35.0,1.0,36.0,Riley,Acc,Participant_Images/5ad2c8334d061300011b1985/5ad2c8334d061300011b1985_Images/5ad2c8334d061300011b1985_Image_17.jpeg,liked,3.79605092,,,,,,,,,,,,,,
5ad2c8334d061300011b1985,,,,,,,space,1.0663,NAN,,NAN,,0.0,36.0,36.0,36.0,1.0,37.0,Riley,Acc,Participant_Images/5ad2c8334d061300011b1985/5ad2c8334d061300011b1985_Images/5ad2c8334d061300011b1985_Image_5.jpeg,did not like,3.562416326,,,,,,,,,,,,,,
5ad2c8334d061300011b1985,,,,,,,space,1.0469,NAN,,NAN,,0.0,37.0,37.0,37.0,1.0,38.0,Riley,Acc,Participant_Images/5ad2c8334d061300011b1985/5ad2c8334d061300011b1985_Images/5ad2c8334d061300011b1985_Image_20.jpeg,did not like,2.843822497,,,,,,,,,,,,,,
5ad2c8334d061300011b1985,,,,,,,space,1.0707,NAN,,NAN,,0.0,38.0,38.0,38.0,1.0,39.0,Riley,Acc,Participant_Images/5ad2c8334d061300011b1985/5ad2c8334d061300011b1985_Images/5ad2c8334d061300011b1985_Image_6.jpeg,did not like,3.546495948,,,,,,,,,,,,,,
5ad2c8334d061300011b1985,,,,,,,,,,,,,,,,,,,,,,,,c,0.0,space,0.8613,0.0,0.0,0.0,0.0,1.0,1.2047,,,,
5ad2c8334d061300011b1985,,,,,,,,,NAN,,NAN,,0.0,39.0,39.0,39.0,1.0,40.0,Riley,Acc,Participant_Images/5ad2c8334d061300011b1985/5ad2c8334d061300011b1985_Images/5ad2c8334d061300011b1985_Image_23.jpeg,did not like,1.672012706,,,,,,,,,,,,,,
5ad2c8334d061300011b1985,,,,,,,space,1.0647,NAN,,NAN,,0.0,40.0,40.0,40.0,1.0,41.0,Riley,Acc,Participant_Images/5ad2c8334d061300011b1985/5ad2c8334d061300011b1985_Images/5ad2c8334d061300011b1985_Image_19.jpeg,liked,4.942172136,,,,,,,,,,,,,,
5ad2c8334d061300011b1985,,,,,,,space,1.0171,NAN,,NAN,,0.0,41.0,41.0,41.0,1.0,42.0,Riley,Acc,Participant_Images/5ad2c8334d061300011b1985/5ad2c8334d061300011b1985_Images/5ad2c8334d061300011b1985_Image_29.jpeg,liked,2.50187214,,,,,,,,,,,,,,
5ad2c8334d061300011b1985,,,,,,,space,0.9446,NAN,,NAN,,0.0,42.0,42.0,42.0,1.0,43.0,Riley,Acc,Participant_Images/5ad2c8334d061300011b1985/5ad2c8334d061300011b1985_Images/5ad2c8334d061300011b1985_Image_1.jpeg,liked,2.071164779,,,,,,,,,,,,,,
5ad2c8334d061300011b1985,,,,,,,space,1.0151,NAN,,NAN,,0.0,43.0,43.0,43.0,1.0,44.0,Riley,Acc,Participant_Images/5ad2c8334d061300011b1985/5ad2c8334d061300011b1985_Images/5ad2c8334d061300011b1985_Image_8.jpeg,liked,5.336503566,,,,,,,,,,,,,,
5ad2c8334d061300011b1985,,,,,,,,,,,,,,,,,,,,,,,,c,0.0,space,0.8981,0.0,0.0,0.0,0.0,1.0,1.1345,,,,
5ad2c8334d061300011b1985,,,,,,,,,NAN,,NAN,,0.0,44.0,44.0,44.0,1.0,45.0,Riley,Acc,Participant_Images/5ad2c8334d061300011b1985/5ad2c8334d061300011b1985_Images/5ad2c8334d061300011b1985_Image_16.jpeg,liked,2.642157193,,,,,,,,,,,,,,
5ad2c8334d061300011b1985,,,,,,,space,1.2243,NAN,,NAN,,0.0,45.0,45.0,45.0,1.0,46.0,Riley,Acc,Participant_Images/5ad2c8334d061300011b1985/5ad2c8334d061300011b1985_Images/5ad2c8334d061300011b1985_Image_15.jpeg,liked,4.456234322,,,,,,,,,,,,,,
5ad2c8334d061300011b1985,,,,,,,space,1.3956,NAN,,NAN,,0.0,46.0,46.0,46.0,1.0,47.0,Riley,Acc,Participant_Images/5ad2c8334d061300011b1985/5ad2c8334d061300011b1985_Images/5ad2c8334d061300011b1985_Image_11.jpeg,liked,4.438512181,,,,,,,,,,,,,,
5ad2c8334d061300011b1985,,,,,,,space,0.884,NAN,,NAN,,0.0,47.0,47.0,47.0,1.0,48.0,Riley,Acc,Participant_Images/5ad2c8334d061300011b1985/5ad2c8334d061300011b1985_Images/5ad2c8334d061300011b1985_Image_26.jpeg,liked,2.682944783,,,,,,,,,,,,,,
5ad2c8334d061300011b1985,,,,,,,space,1.1178,NAN,,NAN,,0.0,48.0,48.0,48.0,1.0,49.0,Riley,Acc,Participant_Images/5ad2c8334d061300011b1985/5ad2c8334d061300011b1985_Images/5ad2c8334d061300011b1985_Image_3.jpeg,liked,4.51984296,,,,,,,,,,,,,,
5ad2c8334d061300011b1985,,,,,,,,,,,,,,,,,,,,,,,,c,0.0,space,1.1464,0.0,0.0,0.0,0.0,1.0,1.3269,,,,
5ad2c8334d061300011b1985,,,,,,,,,NAN,,NAN,,0.0,49.0,49.0,49.0,1.0,50.0,Riley,Acc,Participant_Images/5ad2c8334d061300011b1985/5ad2c8334d061300011b1985_Images/5ad2c8334d061300011b1985_Image_14.jpeg,did not like,3.195382774,,,,,,,,,,,,,,
5ad2c8334d061300011b1985,,,,,,,space,0.9205,NAN,,NAN,,0.0,50.0,50.0,50.0,1.0,51.0,Riley,Acc,Participant_Images/5ad2c8334d061300011b1985/5ad2c8334d061300011b1985_Images/5ad2c8334d061300011b1985_Image_21.jpeg,liked,1.779333479,,,,,,,,,,,,,,
5ad2c8334d061300011b1985,,,,,,,space,1.1344,NAN,,NAN,,0.0,51.0,51.0,51.0,1.0,52.0,Riley,Acc,Participant_Images/5ad2c8334d061300011b1985/5ad2c8334d061300011b1985_Images/5ad2c8334d061300011b1985_Image_10.jpeg,did not like,4.312468682,,,,,,,,,,,,,,
5ad2c8334d061300011b1985,,,,,,,space,0.9996,NAN,,NAN,,0.0,52.0,52.0,52.0,1.0,53.0,Riley,Acc,Participant_Images/5ad2c8334d061300011b1985/5ad2c8334d061300011b1985_Images/5ad2c8334d061300011b1985_Image_2.jpeg,liked,4.940433059,,,,,,,,,,,,,,
5ad2c8334d061300011b1985,,,,,,,space,0.8854,NAN,,NAN,,0.0,53.0,53.0,53.0,1.0,54.0,Riley,Acc,Participant_Images/5ad2c8334d061300011b1985/5ad2c8334d061300011b1985_Images/5ad2c8334d061300011b1985_Image_7.jpeg,liked,2.7105123,,,,,,,,,,,,,,
5ad2c8334d061300011b1985,,,,,,,,,,,,,,,,,,,,,,,,s,1.0,space,1.0481,0.0,0.0,0.0,0.0,1.0,1.4757,l,0.6884,,
5ad2c8334d061300011b1985,,,,,,,,,NAN,,NAN,,0.0,54.0,54.0,54.0,1.0,55.0,Riley,Acc,Participant_Images/5ad2c8334d061300011b1985/5ad2c8334d061300011b1985_Images/5ad2c8334d061300011b1985_Image_22.jpeg,liked,3.602308302,,,,,,,,,,,,,,
5ad2c8334d061300011b1985,,,,,,,space,0.9107,NAN,,NAN,,0.0,55.0,55.0,55.0,1.0,56.0,Riley,Acc,Participant_Images/5ad2c8334d061300011b1985/5ad2c8334d061300011b1985_Images/5ad2c8334d061300011b1985_Image_13.jpeg,liked,4.106391878,,,,,,,,,,,,,,
5ad2c8334d061300011b1985,,,,,,,space,1.1479,NAN,,NAN,,0.0,56.0,56.0,56.0,1.0,57.0,Riley,Acc,Participant_Images/5ad2c8334d061300011b1985/5ad2c8334d061300011b1985_Images/5ad2c8334d061300011b1985_Image_12.jpeg,liked,3.799433026,,,,,,,,,,,,,,
5ad2c8334d061300011b1985,,,,,,,space,0.8053,NAN,,NAN,,0.0,57.0,57.0,57.0,1.0,58.0,Riley,Acc,Participant_Images/5ad2c8334d061300011b1985/5ad2c8334d061300011b1985_Images/5ad2c8334d061300011b1985_Image_4.jpeg,liked,5.246980764,,,,,,,,,,,,,,
5ad2c8334d061300011b1985,,,,,,,space,0.3175,NAN,,NAN,,0.0,58.0,58.0,58.0,1.0,59.0,Riley,Acc,Participant_Images/5ad2c8334d061300011b1985/5ad2c8334d061300011b1985_Images/5ad2c8334d061300011b1985_Image_18.jpeg,did not like,3.30081769,,,,,,,,,,,,,,
5ad2c8334d061300011b1985,,,,,,,,,,,,,,,,,,,,,,,,c,0.0,space,2.6016,0.0,0.0,0.0,0.0,1.0,1.7614,,,,
5ad2c8334d061300011b1985,,,,,,,,,4,,2,,0.0,59.0,59.0,59.0,1.0,60.0,Riley,Acc,Participant_Images/5ad2c8334d061300011b1985/5ad2c8334d061300011b1985_Images/5ad2c8334d061300011b1985_Image_28.jpeg,liked,1.661473164,,,,,,,,,,,,,,
5ad2c8334d061300011b1985,,,,,space,2.3771,space,1.477,NAN,,NAN,,0.0,60.0,60.0,60.0,1.0,61.0,Alex,Rej,Participant_Images/5ad2c8334d061300011b1985/5ad2c8334d061300011b1985_Images/5ad2c8334d061300011b1985_Image_17.jpeg,did not like,3.613205605,,,,,,,,,,,,,,
5ad2c8334d061300011b1985,,,,,,,space,0.5416,NAN,,NAN,,0.0,61.0,61.0,61.0,1.0,62.0,Alex,Rej,Participant_Images/5ad2c8334d061300011b1985/5ad2c8334d061300011b1985_Images/5ad2c8334d061300011b1985_Image_13.jpeg,did not like,4.988446431,,,,,,,,,,,,,,
5ad2c8334d061300011b1985,,,,,,,space,1.3893,NAN,,NAN,,0.0,62.0,62.0,62.0,1.0,63.0,Alex,Rej,Participant_Images/5ad2c8334d061300011b1985/5ad2c8334d061300011b1985_Images/5ad2c8334d061300011b1985_Image_23.jpeg,did not like,3.470791822,,,,,,,,,,,,,,
5ad2c8334d061300011b1985,,,,,,,space,2.0984,NAN,,NAN,,0.0,63.0,63.0,63.0,1.0,64.0,Alex,Rej,Participant_Images/5ad2c8334d061300011b1985/5ad2c8334d061300011b1985_Images/5ad2c8334d061300011b1985_Image_8.jpeg,did not like,3.820572462,,,,,,,,,,,,,,
5ad2c8334d061300011b1985,,,,,,,,,,,,,,,,,,,,,,,,c,0.0,space,1.0532,0.0,0.0,0.0,0.0,1.0,1.3134,,,,
5ad2c8334d061300011b1985,,,,,,,,,NAN,,NAN,,0.0,64.0,64.0,64.0,1.0,65.0,Alex,Rej,Participant_Images/5ad2c8334d061300011b1985/5ad2c8334d061300011b1985_Images/5ad2c8334d061300011b1985_Image_3.jpeg,liked,2.455989137,,,,,,,,,,,,,,
5ad2c8334d061300011b1985,,,,,,,space,1.269,NAN,,NAN,,0.0,65.0,65.0,65.0,1.0,66.0,Alex,Rej,Participant_Images/5ad2c8334d061300011b1985/5ad2c8334d061300011b1985_Images/5ad2c8334d061300011b1985_Image_2.jpeg,liked,3.79605092,,,,,,,,,,,,,,
5ad2c8334d061300011b1985,,,,,,,space,1.2403,NAN,,NAN,,0.0,66.0,66.0,66.0,1.0,67.0,Alex,Rej,Participant_Images/5ad2c8334d061300011b1985/5ad2c8334d061300011b1985_Images/5ad2c8334d061300011b1985_Image_14.jpeg,did not like,3.562416326,,,,,,,,,,,,,,
5ad2c8334d061300011b1985,,,,,,,space,1.0386,NAN,,NAN,,0.0,67.0,67.0,67.0,1.0,68.0,Alex,Rej,Participant_Images/5ad2c8334d061300011b1985/5ad2c8334d061300011b1985_Images/5ad2c8334d061300011b1985_Image_30.jpeg,did not like,2.843822497,,,,,,,,,,,,,,
5ad2c8334d061300011b1985,,,,,,,space,1.1853,NAN,,NAN,,0.0,68.0,68.0,68.0,1.0,69.0,Alex,Rej,Participant_Images/5ad2c8334d061300011b1985/5ad2c8334d061300011b1985_Images/5ad2c8334d061300011b1985_Image_20.jpeg,did not like,3.546495948,,,,,,,,,,,,,,
5ad2c8334d061300011b1985,,,,,,,,,,,,,,,,,,,,,,,,c,0.0,space,1.0086,0.0,0.0,0.0,0.0,1.0,1.4437,,,,
5ad2c8334d061300011b1985,,,,,,,,,NAN,,NAN,,0.0,69.0,69.0,69.0,1.0,70.0,Alex,Rej,Participant_Images/5ad2c8334d061300011b1985/5ad2c8334d061300011b1985_Images/5ad2c8334d061300011b1985_Image_25.jpeg,did not like,1.672012706,,,,,,,,,,,,,,
5ad2c8334d061300011b1985,,,,,,,space,1.2226,NAN,,NAN,,0.0,70.0,70.0,70.0,1.0,71.0,Alex,Rej,Participant_Images/5ad2c8334d061300011b1985/5ad2c8334d061300011b1985_Images/5ad2c8334d061300011b1985_Image_27.jpeg,did not like,4.942172136,,,,,,,,,,,,,,
5ad2c8334d061300011b1985,,,,,,,space,1.041,NAN,,NAN,,0.0,71.0,71.0,71.0,1.0,72.0,Alex,Rej,Participant_Images/5ad2c8334d061300011b1985/5ad2c8334d061300011b1985_Images/5ad2c8334d061300011b1985_Image_18.jpeg,did not like,2.50187214,,,,,,,,,,,,,,
5ad2c8334d061300011b1985,,,,,,,space,1.5197,NAN,,NAN,,0.0,72.0,72.0,72.0,1.0,73.0,Alex,Rej,Participant_Images/5ad2c8334d061300011b1985/5ad2c8334d061300011b1985_Images/5ad2c8334d061300011b1985_Image_19.jpeg,liked,2.071164779,,,,,,,,,,,,,,
5ad2c8334d061300011b1985,,,,,,,space,0.9973,NAN,,NAN,,0.0,73.0,73.0,73.0,1.0,74.0,Alex,Rej,Participant_Images/5ad2c8334d061300011b1985/5ad2c8334d061300011b1985_Images/5ad2c8334d061300011b1985_Image_1.jpeg,did not like,5.336503566,,,,,,,,,,,,,,
5ad2c8334d061300011b1985,,,,,,,,,,,,,,,,,,,,,,,,s,1.0,space,0.7366,0.0,0.0,0.0,0.0,1.0,1.4145,h,0.3307,,
5ad2c8334d061300011b1985,,,,,,,,,NAN,,NAN,,0.0,74.0,74.0,74.0,1.0,75.0,Alex,Rej,Participant_Images/5ad2c8334d061300011b1985/5ad2c8334d061300011b1985_Images/5ad2c8334d061300011b1985_Image_22.jpeg,did not like,2.642157193,,,,,,,,,,,,,,
5ad2c8334d061300011b1985,,,,,,,space,1.0949,NAN,,NAN,,0.0,75.0,75.0,75.0,1.0,76.0,Alex,Rej,Participant_Images/5ad2c8334d061300011b1985/5ad2c8334d061300011b1985_Images/5ad2c8334d061300011b1985_Image_16.jpeg,did not like,4.456234322,,,,,,,,,,,,,,
5ad2c8334d061300011b1985,,,,,,,space,1.7833,NAN,,NAN,,0.0,76.0,76.0,76.0,1.0,77.0,Alex,Rej,Participant_Images/5ad2c8334d061300011b1985/5ad2c8334d061300011b1985_Images/5ad2c8334d061300011b1985_Image_29.jpeg,did not like,4.438512181,,,,,,,,,,,,,,
5ad2c8334d061300011b1985,,,,,,,space,1.2271,NAN,,NAN,,0.0,77.0,77.0,77.0,1.0,78.0,Alex,Rej,Participant_Images/5ad2c8334d061300011b1985/5ad2c8334d061300011b1985_Images/5ad2c8334d061300011b1985_Image_5.jpeg,liked,2.682944783,,,,,,,,,,,,,,
5ad2c8334d061300011b1985,,,,,,,space,1.4609,NAN,,NAN,,0.0,78.0,78.0,78.0,1.0,79.0,Alex,Rej,Participant_Images/5ad2c8334d061300011b1985/5ad2c8334d061300011b1985_Images/5ad2c8334d061300011b1985_Image_7.jpeg,liked,4.51984296,,,,,,,,,,,,,,
5ad2c8334d061300011b1985,,,,,,,,,,,,,,,,,,,,,,,,c,0.0,space,1.1128,0.0,0.0,0.0,0.0,1.0,1.7706,,,,
5ad2c8334d061300011b1985,,,,,,,,,NAN,,NAN,,0.0,79.0,79.0,79.0,1.0,80.0,Alex,Rej,Participant_Images/5ad2c8334d061300011b1985/5ad2c8334d061300011b1985_Images/5ad2c8334d061300011b1985_Image_26.jpeg,did not like,3.195382774,,,,,,,,,,,,,,
5ad2c8334d061300011b1985,,,,,,,space,1.5082,NAN,,NAN,,0.0,80.0,80.0,80.0,1.0,81.0,Alex,Rej,Participant_Images/5ad2c8334d061300011b1985/5ad2c8334d061300011b1985_Images/5ad2c8334d061300011b1985_Image_4.jpeg,did not like,1.779333479,,,,,,,,,,,,,,
5ad2c8334d061300011b1985,,,,,,,space,0.9257,NAN,,NAN,,0.0,81.0,81.0,81.0,1.0,82.0,Alex,Rej,Participant_Images/5ad2c8334d061300011b1985/5ad2c8334d061300011b1985_Images/5ad2c8334d061300011b1985_Image_24.jpeg,did not like,4.312468682,,,,,,,,,,,,,,
5ad2c8334d061300011b1985,,,,,,,space,1.0452,NAN,,NAN,,0.0,82.0,82.0,82.0,1.0,83.0,Alex,Rej,Participant_Images/5ad2c8334d061300011b1985/5ad2c8334d061300011b1985_Images/5ad2c8334d061300011b1985_Image_6.jpeg,did not like,4.940433059,,,,,,,,,,,,,,
5ad2c8334d061300011b1985,,,,,,,space,1.0914,NAN,,NAN,,0.0,83.0,83.0,83.0,1.0,84.0,Alex,Rej,Participant_Images/5ad2c8334d061300011b1985/5ad2c8334d061300011b1985_Images/5ad2c8334d061300011b1985_Image_21.jpeg,did not like,2.7105123,,,,,,,,,,,,,,
5ad2c8334d061300011b1985,,,,,,,,,,,,,,,,,,,,,,,,s,1.0,space,0.6259,0.0,0.0,0.0,0.0,1.0,1.7471,h,0.2876,,
5ad2c8334d061300011b1985,,,,,,,,,NAN,,NAN,,0.0,84.0,84.0,84.0,1.0,85.0,Alex,Rej,Participant_Images/5ad2c8334d061300011b1985/5ad2c8334d061300011b1985_Images/5ad2c8334d061300011b1985_Image_12.jpeg,liked,3.602308302,,,,,,,,,,,,,,
5ad2c8334d061300011b1985,,,,,,,space,1.1429,NAN,,NAN,,0.0,85.0,85.0,85.0,1.0,86.0,Alex,Rej,Participant_Images/5ad2c8334d061300011b1985/5ad2c8334d061300011b1985_Images/5ad2c8334d061300011b1985_Image_9.jpeg,liked,4.106391878,,,,,,,,,,,,,,
5ad2c8334d061300011b1985,,,,,,,space,1.0732,NAN,,NAN,,0.0,86.0,86.0,86.0,1.0,87.0,Alex,Rej,Participant_Images/5ad2c8334d061300011b1985/5ad2c8334d061300011b1985_Images/5ad2c8334d061300011b1985_Image_15.jpeg,did not like,3.799433026,,,,,,,,,,,,,,
5ad2c8334d061300011b1985,,,,,,,space,1.0907,NAN,,NAN,,0.0,87.0,87.0,87.0,1.0,88.0,Alex,Rej,Participant_Images/5ad2c8334d061300011b1985/5ad2c8334d061300011b1985_Images/5ad2c8334d061300011b1985_Image_10.jpeg,did not like,5.246980764,,,,,,,,,,,,,,
5ad2c8334d061300011b1985,,,,,,,space,0.8675,NAN,,NAN,,0.0,88.0,88.0,88.0,1.0,89.0,Alex,Rej,Participant_Images/5ad2c8334d061300011b1985/5ad2c8334d061300011b1985_Images/5ad2c8334d061300011b1985_Image_11.jpeg,liked,3.30081769,,,,,,,,,,,,,,
5ad2c8334d061300011b1985,,,,,,,,,,,,,,,,,,,,,,,,s,1.0,space,1.1377,0.0,0.0,0.0,0.0,1.0,1.4232,h,0.2781,,
5ad2c8334d061300011b1985,,,,,,,,,3,,4,,0.0,89.0,89.0,89.0,1.0,90.0,Alex,Rej,Participant_Images/5ad2c8334d061300011b1985/5ad2c8334d061300011b1985_Images/5ad2c8334d061300011b1985_Image_28.jpeg,liked,1.661473164,,,,,,,,,,,,,,
5ad2c8334d061300011b1985,,,,,space,1.577,space,1.2031,NAN,,NAN,,0.0,90.0,90.0,90.0,1.0,91.0,Charlie,Rej,Participant_Images/5ad2c8334d061300011b1985/5ad2c8334d061300011b1985_Images/5ad2c8334d061300011b1985_Image_15.jpeg,did not like,3.613205605,,,,,,,,,,,,,,
5ad2c8334d061300011b1985,,,,,,,space,0.8195,NAN,,NAN,,0.0,91.0,91.0,91.0,1.0,92.0,Charlie,Rej,Participant_Images/5ad2c8334d061300011b1985/5ad2c8334d061300011b1985_Images/5ad2c8334d061300011b1985_Image_1.jpeg,did not like,4.988446431,,,,,,,,,,,,,,
5ad2c8334d061300011b1985,,,,,,,space,0.8769,NAN,,NAN,,0.0,92.0,92.0,92.0,1.0,93.0,Charlie,Rej,Participant_Images/5ad2c8334d061300011b1985/5ad2c8334d061300011b1985_Images/5ad2c8334d061300011b1985_Image_12.jpeg,did not like,3.470791822,,,,,,,,,,,,,,
5ad2c8334d061300011b1985,,,,,,,space,2.2908,NAN,,NAN,,0.0,93.0,93.0,93.0,1.0,94.0,Charlie,Rej,Participant_Images/5ad2c8334d061300011b1985/5ad2c8334d061300011b1985_Images/5ad2c8334d061300011b1985_Image_29.jpeg,liked,3.820572462,,,,,,,,,,,,,,
5ad2c8334d061300011b1985,,,,,,,,,,,,,,,,,,,,,,,,c,0.0,space,0.811,0.0,0.0,0.0,0.0,1.0,1.2579,,,,
5ad2c8334d061300011b1985,,,,,,,,,NAN,,NAN,,0.0,94.0,94.0,94.0,1.0,95.0,Charlie,Rej,Participant_Images/5ad2c8334d061300011b1985/5ad2c8334d061300011b1985_Images/5ad2c8334d061300011b1985_Image_17.jpeg,did not like,2.455989137,,,,,,,,,,,,,,
5ad2c8334d061300011b1985,,,,,,,space,0.2843,NAN,,NAN,,0.0,95.0,95.0,95.0,1.0,96.0,Charlie,Rej,Participant_Images/5ad2c8334d061300011b1985/5ad2c8334d061300011b1985_Images/5ad2c8334d061300011b1985_Image_3.jpeg,did not like,3.79605092,,,,,,,,,,,,,,
5ad2c8334d061300011b1985,,,,,,,space,1.7144,NAN,,NAN,,0.0,96.0,96.0,96.0,1.0,97.0,Charlie,Rej,Participant_Images/5ad2c8334d061300011b1985/5ad2c8334d061300011b1985_Images/5ad2c8334d061300011b1985_Image_27.jpeg,liked,3.562416326,,,,,,,,,,,,,,
5ad2c8334d061300011b1985,,,,,,,space,1.0242,NAN,,NAN,,0.0,97.0,97.0,97.0,1.0,98.0,Charlie,Rej,Participant_Images/5ad2c8334d061300011b1985/5ad2c8334d061300011b1985_Images/5ad2c8334d061300011b1985_Image_6.jpeg,did not like,2.843822497,,,,,,,,,,,,,,
5ad2c8334d061300011b1985,,,,,,,space,0.8948,NAN,,NAN,,0.0,98.0,98.0,98.0,1.0,99.0,Charlie,Rej,Participant_Images/5ad2c8334d061300011b1985/5ad2c8334d061300011b1985_Images/5ad2c8334d061300011b1985_Image_4.jpeg,did not like,3.546495948,,,,,,,,,,,,,,
5ad2c8334d061300011b1985,,,,,,,,,,,,,,,,,,,,,,,,c,0.0,space,1.4591,0.0,0.0,0.0,0.0,1.0,1.5246,,,,
5ad2c8334d061300011b1985,,,,,,,,,NAN,,NAN,,0.0,99.0,99.0,99.0,1.0,100.0,Charlie,Rej,Participant_Images/5ad2c8334d061300011b1985/5ad2c8334d061300011b1985_Images/5ad2c8334d061300011b1985_Image_20.jpeg,did not like,1.672012706,,,,,,,,,,,,,,
5ad2c8334d061300011b1985,,,,,,,space,1.702,NAN,,NAN,,0.0,100.0,100.0,100.0,1.0,101.0,Charlie,Rej,Participant_Images/5ad2c8334d061300011b1985/5ad2c8334d061300011b1985_Images/5ad2c8334d061300011b1985_Image_24.jpeg,did not like,4.942172136,,,,,,,,,,,,,,
5ad2c8334d061300011b1985,,,,,,,space,0.9768,NAN,,NAN,,0.0,101.0,101.0,101.0,1.0,102.0,Charlie,Rej,Participant_Images/5ad2c8334d061300011b1985/5ad2c8334d061300011b1985_Images/5ad2c8334d061300011b1985_Image_22.jpeg,liked,2.50187214,,,,,,,,,,,,,,
5ad2c8334d061300011b1985,,,,,,,space,1.3888,NAN,,NAN,,0.0,102.0,102.0,102.0,1.0,103.0,Charlie,Rej,Participant_Images/5ad2c8334d061300011b1985/5ad2c8334d061300011b1985_Images/5ad2c8334d061300011b1985_Image_26.jpeg,did not like,2.071164779,,,,,,,,,,,,,,
5ad2c8334d061300011b1985,,,,,,,space,0.9103,NAN,,NAN,,0.0,103.0,103.0,103.0,1.0,104.0,Charlie,Rej,Participant_Images/5ad2c8334d061300011b1985/5ad2c8334d061300011b1985_Images/5ad2c8334d061300011b1985_Image_8.jpeg,liked,5.336503566,,,,,,,,,,,,,,
5ad2c8334d061300011b1985,,,,,,,,,,,,,,,,,,,,,,,,s,1.0,space,1.3779,0.0,0.0,0.0,0.0,1.0,1.3254,h,0.2948,,
5ad2c8334d061300011b1985,,,,,,,,,NAN,,NAN,,0.0,104.0,104.0,104.0,1.0,105.0,Charlie,Rej,Participant_Images/5ad2c8334d061300011b1985/5ad2c8334d061300011b1985_Images/5ad2c8334d061300011b1985_Image_13.jpeg,liked,2.642157193,,,,,,,,,,,,,,
5ad2c8334d061300011b1985,,,,,,,space,0.9264,NAN,,NAN,,0.0,105.0,105.0,105.0,1.0,106.0,Charlie,Rej,Participant_Images/5ad2c8334d061300011b1985/5ad2c8334d061300011b1985_Images/5ad2c8334d061300011b1985_Image_7.jpeg,did not like,4.456234322,,,,,,,,,,,,,,
5ad2c8334d061300011b1985,,,,,,,space,1.0679,NAN,,NAN,,0.0,106.0,106.0,106.0,1.0,107.0,Charlie,Rej,Participant_Images/5ad2c8334d061300011b1985/5ad2c8334d061300011b1985_Images/5ad2c8334d061300011b1985_Image_11.jpeg,did not like,4.438512181,,,,,,,,,,,,,,
5ad2c8334d061300011b1985,,,,,,,space,0.7271,NAN,,NAN,,0.0,107.0,107.0,107.0,1.0,108.0,Charlie,Rej,Participant_Images/5ad2c8334d061300011b1985/5ad2c8334d061300011b1985_Images/5ad2c8334d061300011b1985_Image_2.jpeg,did not like,2.682944783,,,,,,,,,,,,,,
5ad2c8334d061300011b1985,,,,,,,space,0.9881,NAN,,NAN,,0.0,108.0,108.0,108.0,1.0,109.0,Charlie,Rej,Participant_Images/5ad2c8334d061300011b1985/5ad2c8334d061300011b1985_Images/5ad2c8334d061300011b1985_Image_23.jpeg,did not like,4.51984296,,,,,,,,,,,,,,
5ad2c8334d061300011b1985,,,,,,,,,,,,,,,,,,,,,,,,s,1.0,space,1.4073,0.0,0.0,0.0,0.0,1.0,1.5935,h,0.2673,,
5ad2c8334d061300011b1985,,,,,,,,,NAN,,NAN,,0.0,109.0,109.0,109.0,1.0,110.0,Charlie,Rej,Participant_Images/5ad2c8334d061300011b1985/5ad2c8334d061300011b1985_Images/5ad2c8334d061300011b1985_Image_28.jpeg,liked,3.195382774,,,,,,,,,,,,,,
5ad2c8334d061300011b1985,,,,,,,space,0.9882,NAN,,NAN,,0.0,110.0,110.0,110.0,1.0,111.0,Charlie,Rej,Participant_Images/5ad2c8334d061300011b1985/5ad2c8334d061300011b1985_Images/5ad2c8334d061300011b1985_Image_30.jpeg,did not like,1.779333479,,,,,,,,,,,,,,
5ad2c8334d061300011b1985,,,,,,,space,1.0765,NAN,,NAN,,0.0,111.0,111.0,111.0,1.0,112.0,Charlie,Rej,Participant_Images/5ad2c8334d061300011b1985/5ad2c8334d061300011b1985_Images/5ad2c8334d061300011b1985_Image_9.jpeg,did not like,4.312468682,,,,,,,,,,,,,,
5ad2c8334d061300011b1985,,,,,,,space,1.1326,NAN,,NAN,,0.0,112.0,112.0,112.0,1.0,113.0,Charlie,Rej,Participant_Images/5ad2c8334d061300011b1985/5ad2c8334d061300011b1985_Images/5ad2c8334d061300011b1985_Image_5.jpeg,did not like,4.940433059,,,,,,,,,,,,,,
5ad2c8334d061300011b1985,,,,,,,space,1.0096,NAN,,NAN,,0.0,113.0,113.0,113.0,1.0,114.0,Charlie,Rej,Participant_Images/5ad2c8334d061300011b1985/5ad2c8334d061300011b1985_Images/5ad2c8334d061300011b1985_Image_19.jpeg,did not like,2.7105123,,,,,,,,,,,,,,
5ad2c8334d061300011b1985,,,,,,,,,,,,,,,,,,,,,,,,s,1.0,space,1.0061,0.0,0.0,0.0,0.0,1.0,1.4967,h,0.2305,,
5ad2c8334d061300011b1985,,,,,,,,,NAN,,NAN,,0.0,114.0,114.0,114.0,1.0,115.0,Charlie,Rej,Participant_Images/5ad2c8334d061300011b1985/5ad2c8334d061300011b1985_Images/5ad2c8334d061300011b1985_Image_18.jpeg,did not like,3.602308302,,,,,,,,,,,,,,
5ad2c8334d061300011b1985,,,,,,,space,1.5396,NAN,,NAN,,0.0,115.0,115.0,115.0,1.0,116.0,Charlie,Rej,Participant_Images/5ad2c8334d061300011b1985/5ad2c8334d061300011b1985_Images/5ad2c8334d061300011b1985_Image_25.jpeg,did not like,4.106391878,,,,,,,,,,,,,,
5ad2c8334d061300011b1985,,,,,,,space,1.1283,NAN,,NAN,,0.0,116.0,116.0,116.0,1.0,117.0,Charlie,Rej,Participant_Images/5ad2c8334d061300011b1985/5ad2c8334d061300011b1985_Images/5ad2c8334d061300011b1985_Image_10.jpeg,did not like,3.799433026,,,,,,,,,,,,,,
5ad2c8334d061300011b1985,,,,,,,space,1.139,NAN,,NAN,,0.0,117.0,117.0,117.0,1.0,118.0,Charlie,Rej,Participant_Images/5ad2c8334d061300011b1985/5ad2c8334d061300011b1985_Images/5ad2c8334d061300011b1985_Image_16.jpeg,liked,5.246980764,,,,,,,,,,,,,,
5ad2c8334d061300011b1985,,,,,,,space,1.0263,NAN,,NAN,,0.0,118.0,118.0,118.0,1.0,119.0,Charlie,Rej,Participant_Images/5ad2c8334d061300011b1985/5ad2c8334d061300011b1985_Images/5ad2c8334d061300011b1985_Image_21.jpeg,liked,3.30081769,,,,,,,,,,,,,,
5ad2c8334d061300011b1985,,,,,,,,,,,,,,,,,,,,,,,,c,0.0,space,0.8655,0.0,0.0,0.0,0.0,1.0,1.3253,,,,
5ad2c8334d061300011b1985,,,,,,,,,3,,4,,0.0,119.0,119.0,119.0,1.0,120.0,Charlie,Rej,Participant_Images/5ad2c8334d061300011b1985/5ad2c8334d061300011b1985_Images/5ad2c8334d061300011b1985_Image_14.jpeg,liked,1.661473164,,,,,,,,,,,,,,
5ad2c8334d061300011b1985,,,,,space,3.3057,space,1.013,NAN,,NAN,,0.0,120.0,120.0,120.0,1.0,121.0,Sam,Neutral,Participant_Images/5ad2c8334d061300011b1985/5ad2c8334d061300011b1985_Images/5ad2c8334d061300011b1985_Image_15.jpeg,did not like,3.613205605,,,,,,,,,,,,,,
5ad2c8334d061300011b1985,,,,,,,space,0.85,NAN,,NAN,,0.0,121.0,121.0,121.0,1.0,122.0,Sam,Neutral,Participant_Images/5ad2c8334d061300011b1985/5ad2c8334d061300011b1985_Images/5ad2c8334d061300011b1985_Image_26.jpeg,did not like,4.988446431,,,,,,,,,,,,,,
5ad2c8334d061300011b1985,,,,,,,space,0.8635,NAN,,NAN,,0.0,122.0,122.0,122.0,1.0,123.0,Sam,Neutral,Participant_Images/5ad2c8334d061300011b1985/5ad2c8334d061300011b1985_Images/5ad2c8334d061300011b1985_Image_9.jpeg,did not like,3.470791822,,,,,,,,,,,,,,
5ad2c8334d061300011b1985,,,,,,,space,1.5562,NAN,,NAN,,0.0,123.0,123.0,123.0,1.0,124.0,Sam,Neutral,Participant_Images/5ad2c8334d061300011b1985/5ad2c8334d061300011b1985_Images/5ad2c8334d061300011b1985_Image_20.jpeg,liked,3.820572462,,,,,,,,,,,,,,
5ad2c8334d061300011b1985,,,,,,,,,,,,,,,,,,,,,,,,s,1.0,space,0.2319,0.0,0.0,0.0,0.0,1.0,1.3264,h,0.2813,,
5ad2c8334d061300011b1985,,,,,,,,,NAN,,NAN,,0.0,124.0,124.0,124.0,1.0,125.0,Sam,Neutral,Participant_Images/5ad2c8334d061300011b1985/5ad2c8334d061300011b1985_Images/5ad2c8334d061300011b1985_Image_19.jpeg,did not like,2.455989137,,,,,,,,,,,,,,
5ad2c8334d061300011b1985,,,,,,,space,0.8506,NAN,,NAN,,0.0,125.0,125.0,125.0,1.0,126.0,Sam,Neutral,Participant_Images/5ad2c8334d061300011b1985/5ad2c8334d061300011b1985_Images/5ad2c8334d061300011b1985_Image_12.jpeg,did not like,3.79605092,,,,,,,,,,,,,,
5ad2c8334d061300011b1985,,,,,,,space,0.9773,NAN,,NAN,,0.0,126.0,126.0,126.0,1.0,127.0,Sam,Neutral,Participant_Images/5ad2c8334d061300011b1985/5ad2c8334d061300011b1985_Images/5ad2c8334d061300011b1985_Image_7.jpeg,liked,3.562416326,,,,,,,,,,,,,,
5ad2c8334d061300011b1985,,,,,,,space,0.7933,NAN,,NAN,,0.0,127.0,127.0,127.0,1.0,128.0,Sam,Neutral,Participant_Images/5ad2c8334d061300011b1985/5ad2c8334d061300011b1985_Images/5ad2c8334d061300011b1985_Image_22.jpeg,liked,2.843822497,,,,,,,,,,,,,,
5ad2c8334d061300011b1985,,,,,,,space,1.2231,NAN,,NAN,,0.0,128.0,128.0,128.0,1.0,129.0,Sam,Neutral,Participant_Images/5ad2c8334d061300011b1985/5ad2c8334d061300011b1985_Images/5ad2c8334d061300011b1985_Image_16.jpeg,did not like,3.546495948,,,,,,,,,,,,,,
5ad2c8334d061300011b1985,,,,,,,,,,,,,,,,,,,,,,,,c,0.0,space,0.9388,0.0,0.0,0.0,0.0,1.0,1.4005,,,,
5ad2c8334d061300011b1985,,,,,,,,,NAN,,NAN,,0.0,129.0,129.0,129.0,1.0,130.0,Sam,Neutral,Participant_Images/5ad2c8334d061300011b1985/5ad2c8334d061300011b1985_Images/5ad2c8334d061300011b1985_Image_18.jpeg,liked,1.672012706,,,,,,,,,,,,,,
5ad2c8334d061300011b1985,,,,,,,space,0.8614,NAN,,NAN,,0.0,130.0,130.0,130.0,1.0,131.0,Sam,Neutral,Participant_Images/5ad2c8334d061300011b1985/5ad2c8334d061300011b1985_Images/5ad2c8334d061300011b1985_Image_10.jpeg,did not like,4.942172136,,,,,,,,,,,,,,
5ad2c8334d061300011b1985,,,,,,,space,0.6621,NAN,,NAN,,0.0,131.0,131.0,131.0,1.0,132.0,Sam,Neutral,Participant_Images/5ad2c8334d061300011b1985/5ad2c8334d061300011b1985_Images/5ad2c8334d061300011b1985_Image_6.jpeg,did not like,2.50187214,,,,,,,,,,,,,,
5ad2c8334d061300011b1985,,,,,,,space,1.0681,NAN,,NAN,,0.0,132.0,132.0,132.0,1.0,133.0,Sam,Neutral,Participant_Images/5ad2c8334d061300011b1985/5ad2c8334d061300011b1985_Images/5ad2c8334d061300011b1985_Image_17.jpeg,liked,2.071164779,,,,,,,,,,,,,,
5ad2c8334d061300011b1985,,,,,,,space,1.383,NAN,,NAN,,0.0,133.0,133.0,133.0,1.0,134.0,Sam,Neutral,Participant_Images/5ad2c8334d061300011b1985/5ad2c8334d061300011b1985_Images/5ad2c8334d061300011b1985_Image_4.jpeg,liked,5.336503566,,,,,,,,,,,,,,
5ad2c8334d061300011b1985,,,,,,,,,,,,,,,,,,,,,,,,s,1.0,space,1.7257,0.0,0.0,0.0,0.0,1.0,1.3282,h,0.9725,,
5ad2c8334d061300011b1985,,,,,,,,,NAN,,NAN,,0.0,134.0,134.0,134.0,1.0,135.0,Sam,Neutral,Participant_Images/5ad2c8334d061300011b1985/5ad2c8334d061300011b1985_Images/5ad2c8334d061300011b1985_Image_23.jpeg,did not like,2.642157193,,,,,,,,,,,,,,
5ad2c8334d061300011b1985,,,,,,,space,1.2064,NAN,,NAN,,0.0,135.0,135.0,135.0,1.0,136.0,Sam,Neutral,Participant_Images/5ad2c8334d061300011b1985/5ad2c8334d061300011b1985_Images/5ad2c8334d061300011b1985_Image_30.jpeg,liked,4.456234322,,,,,,,,,,,,,,
5ad2c8334d061300011b1985,,,,,,,space,0.273,NAN,,NAN,,0.0,136.0,136.0,136.0,1.0,137.0,Sam,Neutral,Participant_Images/5ad2c8334d061300011b1985/5ad2c8334d061300011b1985_Images/5ad2c8334d061300011b1985_Image_1.jpeg,liked,4.438512181,,,,,,,,,,,,,,
5ad2c8334d061300011b1985,,,,,,,space,0.9521,NAN,,NAN,,0.0,137.0,137.0,137.0,1.0,138.0,Sam,Neutral,Participant_Images/5ad2c8334d061300011b1985/5ad2c8334d061300011b1985_Images/5ad2c8334d061300011b1985_Image_28.jpeg,liked,2.682944783,,,,,,,,,,,,,,
5ad2c8334d061300011b1985,,,,,,,space,1.0246,NAN,,NAN,,0.0,138.0,138.0,138.0,1.0,139.0,Sam,Neutral,Participant_Images/5ad2c8334d061300011b1985/5ad2c8334d061300011b1985_Images/5ad2c8334d061300011b1985_Image_2.jpeg,did not like,4.51984296,,,,,,,,,,,,,,
5ad2c8334d061300011b1985,,,,,,,,,,,,,,,,,,,,,,,,c,0.0,space,1.1051,0.0,0.0,0.0,0.0,1.0,1.3628,,,,
5ad2c8334d061300011b1985,,,,,,,,,NAN,,NAN,,0.0,139.0,139.0,139.0,1.0,140.0,Sam,Neutral,Participant_Images/5ad2c8334d061300011b1985/5ad2c8334d061300011b1985_Images/5ad2c8334d061300011b1985_Image_14.jpeg,liked,3.195382774,,,,,,,,,,,,,,
5ad2c8334d061300011b1985,,,,,,,space,1.0422,NAN,,NAN,,0.0,140.0,140.0,140.0,1.0,141.0,Sam,Neutral,Participant_Images/5ad2c8334d061300011b1985/5ad2c8334d061300011b1985_Images/5ad2c8334d061300011b1985_Image_21.jpeg,did not like,1.779333479,,,,,,,,,,,,,,
5ad2c8334d061300011b1985,,,,,,,space,1.1588,NAN,,NAN,,0.0,141.0,141.0,141.0,1.0,142.0,Sam,Neutral,Participant_Images/5ad2c8334d061300011b1985/5ad2c8334d061300011b1985_Images/5ad2c8334d061300011b1985_Image_27.jpeg,liked,4.312468682,,,,,,,,,,,,,,
5ad2c8334d061300011b1985,,,,,,,space,1.0021,NAN,,NAN,,0.0,142.0,142.0,142.0,1.0,143.0,Sam,Neutral,Participant_Images/5ad2c8334d061300011b1985/5ad2c8334d061300011b1985_Images/5ad2c8334d061300011b1985_Image_5.jpeg,liked,4.940433059,,,,,,,,,,,,,,
5ad2c8334d061300011b1985,,,,,,,space,1.0959,NAN,,NAN,,0.0,143.0,143.0,143.0,1.0,144.0,Sam,Neutral,Participant_Images/5ad2c8334d061300011b1985/5ad2c8334d061300011b1985_Images/5ad2c8334d061300011b1985_Image_11.jpeg,liked,2.7105123,,,,,,,,,,,,,,
5ad2c8334d061300011b1985,,,,,,,,,,,,,,,,,,,,,,,,s,1.0,space,1.0863,0.0,0.0,0.0,0.0,1.0,1.5136,l,0.2823,,
5ad2c8334d061300011b1985,,,,,,,,,NAN,,NAN,,0.0,144.0,144.0,144.0,1.0,145.0,Sam,Neutral,Participant_Images/5ad2c8334d061300011b1985/5ad2c8334d061300011b1985_Images/5ad2c8334d061300011b1985_Image_25.jpeg,did not like,3.602308302,,,,,,,,,,,,,,
5ad2c8334d061300011b1985,,,,,,,space,0.9914,NAN,,NAN,,0.0,145.0,145.0,145.0,1.0,146.0,Sam,Neutral,Participant_Images/5ad2c8334d061300011b1985/5ad2c8334d061300011b1985_Images/5ad2c8334d061300011b1985_Image_3.jpeg,did not like,4.106391878,,,,,,,,,,,,,,
5ad2c8334d061300011b1985,,,,,,,space,1.0238,NAN,,NAN,,0.0,146.0,146.0,146.0,1.0,147.0,Sam,Neutral,Participant_Images/5ad2c8334d061300011b1985/5ad2c8334d061300011b1985_Images/5ad2c8334d061300011b1985_Image_8.jpeg,liked,3.799433026,,,,,,,,,,,,,,
5ad2c8334d061300011b1985,,,,,,,space,1.0443,NAN,,NAN,,0.0,147.0,147.0,147.0,1.0,148.0,Sam,Neutral,Participant_Images/5ad2c8334d061300011b1985/5ad2c8334d061300011b1985_Images/5ad2c8334d061300011b1985_Image_29.jpeg,did not like,5.246980764,,,,,,,,,,,,,,
5ad2c8334d061300011b1985,,,,,,,space,1.0708,NAN,,NAN,,0.0,148.0,148.0,148.0,1.0,149.0,Sam,Neutral,Participant_Images/5ad2c8334d061300011b1985/5ad2c8334d061300011b1985_Images/5ad2c8334d061300011b1985_Image_24.jpeg,did not like,3.30081769,,,,,,,,,,,,,,
5ad2c8334d061300011b1985,,,,,,,,,,,,,,,,,,,,,,,,c,0.0,space,1.1989,0.0,0.0,0.0,0.0,1.0,2.1863,,,,
5ad2c8334d061300011b1985,,,,,,,,,2,,3,,0.0,149.0,149.0,149.0,1.0,150.0,Sam,Neutral,Participant_Images/5ad2c8334d061300011b1985/5ad2c8334d061300011b1985_Images/5ad2c8334d061300011b1985_Image_13.jpeg,liked,1.661473164,,,,,,,,,,,,,,
5ad2c8334d061300011b1985,,,,,,,,,,,,,,,,,,,,,,,,,,,,,,,,,,,,space,2.8907
