endwelcomescreen_keys.keys,endwelcomescreen_keys.rt,endinstructionscreen_keys.keys,endinstructionscreen_keys.rt,endpartnermatch_keys.keys,endpartnermatch_keys.rt,sharenextphoto_key.keys,sharenextphoto_key.rt,salience_rating,key_resp.keys,stress_level,stresslevel_keypress.keys,entiretaskloop.thisRepN,entiretaskloop.thisTrialN,entiretaskloop.thisN,entiretaskloop.thisIndex,entiretaskloop.ran,TrialNumber,Partner,Condition,Photos,Feedback,FeedbackWait,choice_keys.keys,playlottery,resumeafterlottery_keys.keys,resumeafterlottery_keys.rt,lotteryloop.thisRepN,lotteryloop.thisTrialN,lotteryloop.thisN,lotteryloop.thisIndex,lotteryloop.ran,choice_keys.rt,lotteryguess_keys.keys,lotteryguess_keys.rt,end_screen_keys.keys,end_screen_keys.rt
space,8.8838,,,,,,,,,,,,,,,,,,,,,,,,,,,,,,,,,,,
,,,,,,,,,,,,,,,,,,,,,,,,,,,,,,,,,,,,
,,space,3.6178,,,,,,,,,,,,,,,,,,,,,,,,,,,,,,,,,
,,,,space,1.5914,space,0.9403,NAN,,NAN,,0,0,0,0,1,1,Alex,Acc,Participant_Images/5adef850eb60400001539109/5adef850eb60400001539109_Images/5adef850eb60400001539109_Image_23.jpeg,liked,3.613205605,,,,,,,,,,,,,,
,,,,,,space,0.6338,NAN,,NAN,,0,1,1,1,1,2,Alex,Acc,Participant_Images/5adef850eb60400001539109/5adef850eb60400001539109_Images/5adef850eb60400001539109_Image_20.jpeg,liked,4.988446431,,,,,,,,,,,,,,
,,,,,,space,0.5498,NAN,,NAN,,0,2,2,2,1,3,Alex,Acc,Participant_Images/5adef850eb60400001539109/5adef850eb60400001539109_Images/5adef850eb60400001539109_Image_10.jpeg,liked,3.470791822,,,,,,,,,,,,,,
,,,,,,space,0.3374,NAN,,NAN,,0,3,3,3,1,4,Alex,Acc,Participant_Images/5adef850eb60400001539109/5adef850eb60400001539109_Images/5adef850eb60400001539109_Image_7.jpeg,did not like,3.820572462,,,,,,,,,,,,,,
,,,,,,,,,,,,,,,,,,,,,,,,999,space,3.9193,0,0,0,0,1,,,,,
,,,,,,,,NAN,,NAN,,0,4,4,4,1,5,Alex,Acc,Participant_Images/5adef850eb60400001539109/5adef850eb60400001539109_Images/5adef850eb60400001539109_Image_16.jpeg,liked,2.455989137,,,,,,,,,,,,,,
,,,,,,space,0.5876,NAN,,NAN,,0,5,5,5,1,6,Alex,Acc,Participant_Images/5adef850eb60400001539109/5adef850eb60400001539109_Images/5adef850eb60400001539109_Image_11.jpeg,did not like,3.79605092,,,,,,,,,,,,,,
,,,,,,space,0.7751,NAN,,NAN,,0,6,6,6,1,7,Alex,Acc,Participant_Images/5adef850eb60400001539109/5adef850eb60400001539109_Images/5adef850eb60400001539109_Image_29.jpeg,liked,3.562416326,,,,,,,,,,,,,,
,,,,,,space,0.4365,NAN,,NAN,,0,7,7,7,1,8,Alex,Acc,Participant_Images/5adef850eb60400001539109/5adef850eb60400001539109_Images/5adef850eb60400001539109_Image_26.jpeg,did not like,2.843822497,,,,,,,,,,,,,,
,,,,,,space,0.4841,NAN,,NAN,,0,8,8,8,1,9,Alex,Acc,Participant_Images/5adef850eb60400001539109/5adef850eb60400001539109_Images/5adef850eb60400001539109_Image_25.jpeg,liked,3.546495948,,,,,,,,,,,,,,
,,,,,,,,,,,,,,,,,,,,,,,,999,space,0.8151,0,0,0,0,1,,,,,
,,,,,,,,NAN,,NAN,,0,9,9,9,1,10,Alex,Acc,Participant_Images/5adef850eb60400001539109/5adef850eb60400001539109_Images/5adef850eb60400001539109_Image_21.jpeg,liked,1.672012706,,,,,,,,,,,,,,
,,,,,,space,0.5548,NAN,,NAN,,0,10,10,10,1,11,Alex,Acc,Participant_Images/5adef850eb60400001539109/5adef850eb60400001539109_Images/5adef850eb60400001539109_Image_6.jpeg,liked,4.942172136,,,,,,,,,,,,,,
,,,,,,space,1.205,NAN,,NAN,,0,11,11,11,1,12,Alex,Acc,Participant_Images/5adef850eb60400001539109/5adef850eb60400001539109_Images/5adef850eb60400001539109_Image_9.jpeg,liked,2.50187214,,,,,,,,,,,,,,
,,,,,,space,0.5372,NAN,,NAN,,0,12,12,12,1,13,Alex,Acc,Participant_Images/5adef850eb60400001539109/5adef850eb60400001539109_Images/5adef850eb60400001539109_Image_12.jpeg,did not like,2.071164779,,,,,,,,,,,,,,
,,,,,,space,1.3634,NAN,,NAN,,0,13,13,13,1,14,Alex,Acc,Participant_Images/5adef850eb60400001539109/5adef850eb60400001539109_Images/5adef850eb60400001539109_Image_27.jpeg,liked,5.336503566,,,,,,,,,,,,,,
,,,,,,,,,,,,,,,,,,,,,,,s,1,space,0.7239,0,0,0,0,1,1.0452,,,,
,,,,,,,,NAN,,NAN,,0,14,14,14,1,15,Alex,Acc,Participant_Images/5adef850eb60400001539109/5adef850eb60400001539109_Images/5adef850eb60400001539109_Image_4.jpeg,did not like,2.642157193,,,,,,,,,,,,,,
,,,,,,space,0.7376,NAN,,NAN,,0,15,15,15,1,16,Alex,Acc,Participant_Images/5adef850eb60400001539109/5adef850eb60400001539109_Images/5adef850eb60400001539109_Image_3.jpeg,liked,4.456234322,,,,,,,,,,,,,,
,,,,,,space,1.0156,NAN,,NAN,,0,16,16,16,1,17,Alex,Acc,Participant_Images/5adef850eb60400001539109/5adef850eb60400001539109_Images/5adef850eb60400001539109_Image_22.jpeg,did not like,4.438512181,,,,,,,,,,,,,,
,,,,,,space,0.4672,NAN,,NAN,,0,17,17,17,1,18,Alex,Acc,Participant_Images/5adef850eb60400001539109/5adef850eb60400001539109_Images/5adef850eb60400001539109_Image_24.jpeg,liked,2.682944783,,,,,,,,,,,,,,
,,,,,,space,0.5042,NAN,,NAN,,0,18,18,18,1,19,Alex,Acc,Participant_Images/5adef850eb60400001539109/5adef850eb60400001539109_Images/5adef850eb60400001539109_Image_2.jpeg,liked,4.51984296,,,,,,,,,,,,,,
,,,,,,,,,,,,,,,,,,,,,,,s,1,space,0.5834,0,0,0,0,1,2.0938,h,1.0199,,
,,,,,,,,NAN,,NAN,,0,19,19,19,1,20,Alex,Acc,Participant_Images/5adef850eb60400001539109/5adef850eb60400001539109_Images/5adef850eb60400001539109_Image_5.jpeg,liked,3.195382774,,,,,,,,,,,,,,
,,,,,,space,1.665,NAN,,NAN,,0,20,20,20,1,21,Alex,Acc,Participant_Images/5adef850eb60400001539109/5adef850eb60400001539109_Images/5adef850eb60400001539109_Image_8.jpeg,liked,1.779333479,,,,,,,,,,,,,,
,,,,,,space,0.5644,NAN,,NAN,,0,21,21,21,1,22,Alex,Acc,Participant_Images/5adef850eb60400001539109/5adef850eb60400001539109_Images/5adef850eb60400001539109_Image_18.jpeg,liked,4.312468682,,,,,,,,,,,,,,
,,,,,,space,1.0374,NAN,,NAN,,0,22,22,22,1,23,Alex,Acc,Participant_Images/5adef850eb60400001539109/5adef850eb60400001539109_Images/5adef850eb60400001539109_Image_30.jpeg,liked,4.940433059,,,,,,,,,,,,,,
,,,,,,space,1.084,NAN,,NAN,,0,23,23,23,1,24,Alex,Acc,Participant_Images/5adef850eb60400001539109/5adef850eb60400001539109_Images/5adef850eb60400001539109_Image_1.jpeg,did not like,2.7105123,,,,,,,,,,,,,,
,,,,,,,,,,,,,,,,,,,,,,,s,1,space,1.2559,0,0,0,0,1,1.2024,h,0.5222,,
,,,,,,,,NAN,,NAN,,0,24,24,24,1,25,Alex,Acc,Participant_Images/5adef850eb60400001539109/5adef850eb60400001539109_Images/5adef850eb60400001539109_Image_19.jpeg,liked,3.602308302,,,,,,,,,,,,,,
,,,,,,space,0.6208,NAN,,NAN,,0,25,25,25,1,26,Alex,Acc,Participant_Images/5adef850eb60400001539109/5adef850eb60400001539109_Images/5adef850eb60400001539109_Image_28.jpeg,liked,4.106391878,,,,,,,,,,,,,,
,,,,,,space,1.6406,NAN,,NAN,,0,26,26,26,1,27,Alex,Acc,Participant_Images/5adef850eb60400001539109/5adef850eb60400001539109_Images/5adef850eb60400001539109_Image_13.jpeg,liked,3.799433026,,,,,,,,,,,,,,
,,,,,,space,0.4994,NAN,,NAN,,0,27,27,27,1,28,Alex,Acc,Participant_Images/5adef850eb60400001539109/5adef850eb60400001539109_Images/5adef850eb60400001539109_Image_15.jpeg,liked,5.246980764,,,,,,,,,,,,,,
,,,,,,space,0.6809,NAN,,NAN,,0,28,28,28,1,29,Alex,Acc,Participant_Images/5adef850eb60400001539109/5adef850eb60400001539109_Images/5adef850eb60400001539109_Image_17.jpeg,did not like,3.30081769,,,,,,,,,,,,,,
,,,,,,,,,,,,,,,,,,,,,,,s,1,space,0.7702,0,0,0,0,1,1.4328,h,1.1959,,
,,,,,,,,3,,6,,0,29,29,29,1,30,Alex,Acc,Participant_Images/5adef850eb60400001539109/5adef850eb60400001539109_Images/5adef850eb60400001539109_Image_14.jpeg,did not like,1.661473164,,,,,,,,,,,,,,
,,,,space,3.2468,space,0.7041,NAN,,NAN,,0,30,30,30,1,31,Riley,Neutral,Participant_Images/5adef850eb60400001539109/5adef850eb60400001539109_Images/5adef850eb60400001539109_Image_18.jpeg,liked,3.613205605,,,,,,,,,,,,,,
,,,,,,space,1.6165,NAN,,NAN,,0,31,31,31,1,32,Riley,Neutral,Participant_Images/5adef850eb60400001539109/5adef850eb60400001539109_Images/5adef850eb60400001539109_Image_9.jpeg,did not like,4.988446431,,,,,,,,,,,,,,
,,,,,,space,0.4529,NAN,,NAN,,0,32,32,32,1,33,Riley,Neutral,Participant_Images/5adef850eb60400001539109/5adef850eb60400001539109_Images/5adef850eb60400001539109_Image_28.jpeg,did not like,3.470791822,,,,,,,,,,,,,,
,,,,,,space,2.1838,NAN,,NAN,,0,33,33,33,1,34,Riley,Neutral,Participant_Images/5adef850eb60400001539109/5adef850eb60400001539109_Images/5adef850eb60400001539109_Image_7.jpeg,did not like,3.820572462,,,,,,,,,,,,,,
,,,,,,,,,,,,,,,,,,,,,,,s,1,space,0.9698,0,0,0,0,1,2.1506,h,0.929,,
,,,,,,,,NAN,,NAN,,0,34,34,34,1,35,Riley,Neutral,Participant_Images/5adef850eb60400001539109/5adef850eb60400001539109_Images/5adef850eb60400001539109_Image_8.jpeg,did not like,2.455989137,,,,,,,,,,,,,,
,,,,,,space,0.6858,NAN,,NAN,,0,35,35,35,1,36,Riley,Neutral,Participant_Images/5adef850eb60400001539109/5adef850eb60400001539109_Images/5adef850eb60400001539109_Image_17.jpeg,did not like,3.79605092,,,,,,,,,,,,,,
,,,,,,space,0.6854,NAN,,NAN,,0,36,36,36,1,37,Riley,Neutral,Participant_Images/5adef850eb60400001539109/5adef850eb60400001539109_Images/5adef850eb60400001539109_Image_30.jpeg,did not like,3.562416326,,,,,,,,,,,,,,
,,,,,,space,1.0008,NAN,,NAN,,0,37,37,37,1,38,Riley,Neutral,Participant_Images/5adef850eb60400001539109/5adef850eb60400001539109_Images/5adef850eb60400001539109_Image_13.jpeg,liked,2.843822497,,,,,,,,,,,,,,
,,,,,,space,0.5871,NAN,,NAN,,0,38,38,38,1,39,Riley,Neutral,Participant_Images/5adef850eb60400001539109/5adef850eb60400001539109_Images/5adef850eb60400001539109_Image_4.jpeg,liked,3.546495948,,,,,,,,,,,,,,
,,,,,,,,,,,,,,,,,,,,,,,s,1,space,1.071,0,0,0,0,1,2.5315,h,1.2255,,
,,,,,,,,NAN,,NAN,,0,39,39,39,1,40,Riley,Neutral,Participant_Images/5adef850eb60400001539109/5adef850eb60400001539109_Images/5adef850eb60400001539109_Image_5.jpeg,liked,1.672012706,,,,,,,,,,,,,,
,,,,,,space,1.0077,NAN,,NAN,,0,40,40,40,1,41,Riley,Neutral,Participant_Images/5adef850eb60400001539109/5adef850eb60400001539109_Images/5adef850eb60400001539109_Image_12.jpeg,liked,4.942172136,,,,,,,,,,,,,,
,,,,,,space,0.6463,NAN,,NAN,,0,41,41,41,1,42,Riley,Neutral,Participant_Images/5adef850eb60400001539109/5adef850eb60400001539109_Images/5adef850eb60400001539109_Image_29.jpeg,did not like,2.50187214,,,,,,,,,,,,,,
,,,,,,space,1.1211,NAN,,NAN,,0,42,42,42,1,43,Riley,Neutral,Participant_Images/5adef850eb60400001539109/5adef850eb60400001539109_Images/5adef850eb60400001539109_Image_26.jpeg,liked,2.071164779,,,,,,,,,,,,,,
,,,,,,space,0.5067,NAN,,NAN,,0,43,43,43,1,44,Riley,Neutral,Participant_Images/5adef850eb60400001539109/5adef850eb60400001539109_Images/5adef850eb60400001539109_Image_16.jpeg,did not like,5.336503566,,,,,,,,,,,,,,
,,,,,,,,,,,,,,,,,,,,,,,s,1,space,0.615,0,0,0,0,1,1.5206,h,2.3968,,
,,,,,,,,NAN,,NAN,,0,44,44,44,1,45,Riley,Neutral,Participant_Images/5adef850eb60400001539109/5adef850eb60400001539109_Images/5adef850eb60400001539109_Image_23.jpeg,did not like,2.642157193,,,,,,,,,,,,,,
,,,,,,space,0.9208,NAN,,NAN,,0,45,45,45,1,46,Riley,Neutral,Participant_Images/5adef850eb60400001539109/5adef850eb60400001539109_Images/5adef850eb60400001539109_Image_10.jpeg,liked,4.456234322,,,,,,,,,,,,,,
,,,,,,space,0.6214,NAN,,NAN,,0,46,46,46,1,47,Riley,Neutral,Participant_Images/5adef850eb60400001539109/5adef850eb60400001539109_Images/5adef850eb60400001539109_Image_24.jpeg,did not like,4.438512181,,,,,,,,,,,,,,
,,,,,,space,0.6684,NAN,,NAN,,0,47,47,47,1,48,Riley,Neutral,Participant_Images/5adef850eb60400001539109/5adef850eb60400001539109_Images/5adef850eb60400001539109_Image_2.jpeg,liked,2.682944783,,,,,,,,,,,,,,
,,,,,,space,0.8163,NAN,,NAN,,0,48,48,48,1,49,Riley,Neutral,Participant_Images/5adef850eb60400001539109/5adef850eb60400001539109_Images/5adef850eb60400001539109_Image_25.jpeg,did not like,4.51984296,,,,,,,,,,,,,,
,,,,,,,,,,,,,,,,,,,,,,,s,1,space,0.5736,0,0,0,0,1,1.5537,h,0.66,,
,,,,,,,,NAN,,NAN,,0,49,49,49,1,50,Riley,Neutral,Participant_Images/5adef850eb60400001539109/5adef850eb60400001539109_Images/5adef850eb60400001539109_Image_27.jpeg,liked,3.195382774,,,,,,,,,,,,,,
,,,,,,space,1.9188,NAN,,NAN,,0,50,50,50,1,51,Riley,Neutral,Participant_Images/5adef850eb60400001539109/5adef850eb60400001539109_Images/5adef850eb60400001539109_Image_15.jpeg,did not like,1.779333479,,,,,,,,,,,,,,
,,,,,,space,2.0876,NAN,,NAN,,0,51,51,51,1,52,Riley,Neutral,Participant_Images/5adef850eb60400001539109/5adef850eb60400001539109_Images/5adef850eb60400001539109_Image_14.jpeg,did not like,4.312468682,,,,,,,,,,,,,,
,,,,,,space,0.719,NAN,,NAN,,0,52,52,52,1,53,Riley,Neutral,Participant_Images/5adef850eb60400001539109/5adef850eb60400001539109_Images/5adef850eb60400001539109_Image_6.jpeg,did not like,4.940433059,,,,,,,,,,,,,,
,,,,,,space,0.9716,NAN,,NAN,,0,53,53,53,1,54,Riley,Neutral,Participant_Images/5adef850eb60400001539109/5adef850eb60400001539109_Images/5adef850eb60400001539109_Image_20.jpeg,liked,2.7105123,,,,,,,,,,,,,,
,,,,,,,,,,,,,,,,,,,,,,,s,1,space,0.6037,0,0,0,0,1,1.5414,h,1.0978,,
,,,,,,,,NAN,,NAN,,0,54,54,54,1,55,Riley,Neutral,Participant_Images/5adef850eb60400001539109/5adef850eb60400001539109_Images/5adef850eb60400001539109_Image_21.jpeg,did not like,3.602308302,,,,,,,,,,,,,,
,,,,,,space,0.5924,NAN,,NAN,,0,55,55,55,1,56,Riley,Neutral,Participant_Images/5adef850eb60400001539109/5adef850eb60400001539109_Images/5adef850eb60400001539109_Image_3.jpeg,liked,4.106391878,,,,,,,,,,,,,,
,,,,,,space,0.7553,NAN,,NAN,,0,56,56,56,1,57,Riley,Neutral,Participant_Images/5adef850eb60400001539109/5adef850eb60400001539109_Images/5adef850eb60400001539109_Image_19.jpeg,liked,3.799433026,,,,,,,,,,,,,,
,,,,,,space,0.986,NAN,,NAN,,0,57,57,57,1,58,Riley,Neutral,Participant_Images/5adef850eb60400001539109/5adef850eb60400001539109_Images/5adef850eb60400001539109_Image_1.jpeg,liked,5.246980764,,,,,,,,,,,,,,
,,,,,,space,1.0031,NAN,,NAN,,0,58,58,58,1,59,Riley,Neutral,Participant_Images/5adef850eb60400001539109/5adef850eb60400001539109_Images/5adef850eb60400001539109_Image_11.jpeg,liked,3.30081769,,,,,,,,,,,,,,
,,,,,,,,,,,,,,,,,,,,,,,s,1,space,1.187,0,0,0,0,1,1.3475,h,1.121,,
,,,,,,,,3,,4,,0,59,59,59,1,60,Riley,Neutral,Participant_Images/5adef850eb60400001539109/5adef850eb60400001539109_Images/5adef850eb60400001539109_Image_22.jpeg,liked,1.661473164,,,,,,,,,,,,,,
,,,,space,2.3603,space,0.6663,NAN,,NAN,,0,60,60,60,1,61,Taylor,Acc,Participant_Images/5adef850eb60400001539109/5adef850eb60400001539109_Images/5adef850eb60400001539109_Image_12.jpeg,liked,3.613205605,,,,,,,,,,,,,,
,,,,,,space,2.0906,NAN,,NAN,,0,61,61,61,1,62,Taylor,Acc,Participant_Images/5adef850eb60400001539109/5adef850eb60400001539109_Images/5adef850eb60400001539109_Image_25.jpeg,did not like,4.988446431,,,,,,,,,,,,,,
,,,,,,space,3.9511,NAN,,NAN,,0,62,62,62,1,63,Taylor,Acc,Participant_Images/5adef850eb60400001539109/5adef850eb60400001539109_Images/5adef850eb60400001539109_Image_28.jpeg,liked,3.470791822,,,,,,,,,,,,,,
,,,,,,space,1.4179,NAN,,NAN,,0,63,63,63,1,64,Taylor,Acc,Participant_Images/5adef850eb60400001539109/5adef850eb60400001539109_Images/5adef850eb60400001539109_Image_23.jpeg,liked,3.820572462,,,,,,,,,,,,,,
,,,,,,,,,,,,,,,,,,,,,,,s,1,space,1.0163,0,0,0,0,1,3.0733,h,0.4129,,
,,,,,,,,NAN,,NAN,,0,64,64,64,1,65,Taylor,Acc,Participant_Images/5adef850eb60400001539109/5adef850eb60400001539109_Images/5adef850eb60400001539109_Image_1.jpeg,liked,2.455989137,,,,,,,,,,,,,,
,,,,,,space,1.603,NAN,,NAN,,0,65,65,65,1,66,Taylor,Acc,Participant_Images/5adef850eb60400001539109/5adef850eb60400001539109_Images/5adef850eb60400001539109_Image_5.jpeg,liked,3.79605092,,,,,,,,,,,,,,
,,,,,,space,0.6338,NAN,,NAN,,0,66,66,66,1,67,Taylor,Acc,Participant_Images/5adef850eb60400001539109/5adef850eb60400001539109_Images/5adef850eb60400001539109_Image_15.jpeg,liked,3.562416326,,,,,,,,,,,,,,
,,,,,,space,1.0694,NAN,,NAN,,0,67,67,67,1,68,Taylor,Acc,Participant_Images/5adef850eb60400001539109/5adef850eb60400001539109_Images/5adef850eb60400001539109_Image_11.jpeg,did not like,2.843822497,,,,,,,,,,,,,,
,,,,,,space,0.554,NAN,,NAN,,0,68,68,68,1,69,Taylor,Acc,Participant_Images/5adef850eb60400001539109/5adef850eb60400001539109_Images/5adef850eb60400001539109_Image_2.jpeg,did not like,3.546495948,,,,,,,,,,,,,,
,,,,,,,,,,,,,,,,,,,,,,,s,1,space,3.6174,0,0,0,0,1,1.6736,h,1.5329,,
,,,,,,,,NAN,,NAN,,0,69,69,69,1,70,Taylor,Acc,Participant_Images/5adef850eb60400001539109/5adef850eb60400001539109_Images/5adef850eb60400001539109_Image_22.jpeg,did not like,1.672012706,,,,,,,,,,,,,,
,,,,,,space,1.0381,NAN,,NAN,,0,70,70,70,1,71,Taylor,Acc,Participant_Images/5adef850eb60400001539109/5adef850eb60400001539109_Images/5adef850eb60400001539109_Image_24.jpeg,liked,4.942172136,,,,,,,,,,,,,,
,,,,,,space,2.4394,NAN,,NAN,,0,71,71,71,1,72,Taylor,Acc,Participant_Images/5adef850eb60400001539109/5adef850eb60400001539109_Images/5adef850eb60400001539109_Image_30.jpeg,liked,2.50187214,,,,,,,,,,,,,,
,,,,,,space,2.0684,NAN,,NAN,,0,72,72,72,1,73,Taylor,Acc,Participant_Images/5adef850eb60400001539109/5adef850eb60400001539109_Images/5adef850eb60400001539109_Image_13.jpeg,liked,2.071164779,,,,,,,,,,,,,,
,,,,,,space,0.7182,NAN,,NAN,,0,73,73,73,1,74,Taylor,Acc,Participant_Images/5adef850eb60400001539109/5adef850eb60400001539109_Images/5adef850eb60400001539109_Image_26.jpeg,did not like,5.336503566,,,,,,,,,,,,,,
,,,,,,,,,,,,,,,,,,,,,,,s,1,space,5.8786,0,0,0,0,1,1.7639,h,2.2675,,
,,,,,,,,NAN,,NAN,,0,74,74,74,1,75,Taylor,Acc,Participant_Images/5adef850eb60400001539109/5adef850eb60400001539109_Images/5adef850eb60400001539109_Image_18.jpeg,liked,2.642157193,,,,,,,,,,,,,,
,,,,,,space,4.1213,NAN,,NAN,,0,75,75,75,1,76,Taylor,Acc,Participant_Images/5adef850eb60400001539109/5adef850eb60400001539109_Images/5adef850eb60400001539109_Image_19.jpeg,liked,4.456234322,,,,,,,,,,,,,,
,,,,,,space,0.5577,NAN,,NAN,,0,76,76,76,1,77,Taylor,Acc,Participant_Images/5adef850eb60400001539109/5adef850eb60400001539109_Images/5adef850eb60400001539109_Image_4.jpeg,did not like,4.438512181,,,,,,,,,,,,,,
,,,,,,space,0.5558,NAN,,NAN,,0,77,77,77,1,78,Taylor,Acc,Participant_Images/5adef850eb60400001539109/5adef850eb60400001539109_Images/5adef850eb60400001539109_Image_27.jpeg,did not like,2.682944783,,,,,,,,,,,,,,
,,,,,,space,0.7207,NAN,,NAN,,0,78,78,78,1,79,Taylor,Acc,Participant_Images/5adef850eb60400001539109/5adef850eb60400001539109_Images/5adef850eb60400001539109_Image_14.jpeg,liked,4.51984296,,,,,,,,,,,,,,
,,,,,,,,,,,,,,,,,,,,,,,s,1,space,0.6552,0,0,0,0,1,0.8439,h,0.3584,,
,,,,,,,,NAN,,NAN,,0,79,79,79,1,80,Taylor,Acc,Participant_Images/5adef850eb60400001539109/5adef850eb60400001539109_Images/5adef850eb60400001539109_Image_29.jpeg,liked,3.195382774,,,,,,,,,,,,,,
,,,,,,space,1.0877,NAN,,NAN,,0,80,80,80,1,81,Taylor,Acc,Participant_Images/5adef850eb60400001539109/5adef850eb60400001539109_Images/5adef850eb60400001539109_Image_6.jpeg,liked,1.779333479,,,,,,,,,,,,,,
,,,,,,space,0.6174,NAN,,NAN,,0,81,81,81,1,82,Taylor,Acc,Participant_Images/5adef850eb60400001539109/5adef850eb60400001539109_Images/5adef850eb60400001539109_Image_7.jpeg,liked,4.312468682,,,,,,,,,,,,,,
,,,,,,space,0.7668,NAN,,NAN,,0,82,82,82,1,83,Taylor,Acc,Participant_Images/5adef850eb60400001539109/5adef850eb60400001539109_Images/5adef850eb60400001539109_Image_20.jpeg,did not like,4.940433059,,,,,,,,,,,,,,
,,,,,,space,0.5326,NAN,,NAN,,0,83,83,83,1,84,Taylor,Acc,Participant_Images/5adef850eb60400001539109/5adef850eb60400001539109_Images/5adef850eb60400001539109_Image_16.jpeg,liked,2.7105123,,,,,,,,,,,,,,
,,,,,,,,,,,,,,,,,,,,,,,s,1,space,0.9171,0,0,0,0,1,0.9306,h,0.6981,,
,,,,,,,,NAN,,NAN,,0,84,84,84,1,85,Taylor,Acc,Participant_Images/5adef850eb60400001539109/5adef850eb60400001539109_Images/5adef850eb60400001539109_Image_8.jpeg,liked,3.602308302,,,,,,,,,,,,,,
,,,,,,space,0.8178,NAN,,NAN,,0,85,85,85,1,86,Taylor,Acc,Participant_Images/5adef850eb60400001539109/5adef850eb60400001539109_Images/5adef850eb60400001539109_Image_21.jpeg,liked,4.106391878,,,,,,,,,,,,,,
,,,,,,space,0.739,NAN,,NAN,,0,86,86,86,1,87,Taylor,Acc,Participant_Images/5adef850eb60400001539109/5adef850eb60400001539109_Images/5adef850eb60400001539109_Image_9.jpeg,did not like,3.799433026,,,,,,,,,,,,,,
,,,,,,space,0.5379,NAN,,NAN,,0,87,87,87,1,88,Taylor,Acc,Participant_Images/5adef850eb60400001539109/5adef850eb60400001539109_Images/5adef850eb60400001539109_Image_3.jpeg,liked,5.246980764,,,,,,,,,,,,,,
,,,,,,space,0.5693,NAN,,NAN,,0,88,88,88,1,89,Taylor,Acc,Participant_Images/5adef850eb60400001539109/5adef850eb60400001539109_Images/5adef850eb60400001539109_Image_10.jpeg,liked,3.30081769,,,,,,,,,,,,,,
,,,,,,,,,,,,,,,,,,,,,,,s,1,space,0.6257,0,0,0,0,1,0.8327,h,0.6267,,
,,,,,,,,3,,3,,0,89,89,89,1,90,Taylor,Acc,Participant_Images/5adef850eb60400001539109/5adef850eb60400001539109_Images/5adef850eb60400001539109_Image_17.jpeg,liked,1.661473164,,,,,,,,,,,,,,
,,,,space,0.4836,space,6.417,NAN,,NAN,,0,90,90,90,1,91,Charlie,Rej,Participant_Images/5adef850eb60400001539109/5adef850eb60400001539109_Images/5adef850eb60400001539109_Image_17.jpeg,liked,3.613205605,,,,,,,,,,,,,,
,,,,,,space,0.8868,NAN,,NAN,,0,91,91,91,1,92,Charlie,Rej,Participant_Images/5adef850eb60400001539109/5adef850eb60400001539109_Images/5adef850eb60400001539109_Image_13.jpeg,did not like,4.988446431,,,,,,,,,,,,,,
,,,,,,space,0.5137,NAN,,NAN,,0,92,92,92,1,93,Charlie,Rej,Participant_Images/5adef850eb60400001539109/5adef850eb60400001539109_Images/5adef850eb60400001539109_Image_18.jpeg,liked,3.470791822,,,,,,,,,,,,,,
,,,,,,space,0.5338,NAN,,NAN,,0,93,93,93,1,94,Charlie,Rej,Participant_Images/5adef850eb60400001539109/5adef850eb60400001539109_Images/5adef850eb60400001539109_Image_5.jpeg,did not like,3.820572462,,,,,,,,,,,,,,
,,,,,,,,,,,,,,,,,,,,,,,s,1,space,0.5738,0,0,0,0,1,0.8935,h,2.5202,,
,,,,,,,,NAN,,NAN,,0,94,94,94,1,95,Charlie,Rej,Participant_Images/5adef850eb60400001539109/5adef850eb60400001539109_Images/5adef850eb60400001539109_Image_19.jpeg,liked,2.455989137,,,,,,,,,,,,,,
,,,,,,space,0.6693,NAN,,NAN,,0,95,95,95,1,96,Charlie,Rej,Participant_Images/5adef850eb60400001539109/5adef850eb60400001539109_Images/5adef850eb60400001539109_Image_6.jpeg,did not like,3.79605092,,,,,,,,,,,,,,
,,,,,,space,0.55,NAN,,NAN,,0,96,96,96,1,97,Charlie,Rej,Participant_Images/5adef850eb60400001539109/5adef850eb60400001539109_Images/5adef850eb60400001539109_Image_25.jpeg,did not like,3.562416326,,,,,,,,,,,,,,
,,,,,,space,0.4344,NAN,,NAN,,0,97,97,97,1,98,Charlie,Rej,Participant_Images/5adef850eb60400001539109/5adef850eb60400001539109_Images/5adef850eb60400001539109_Image_7.jpeg,did not like,2.843822497,,,,,,,,,,,,,,
,,,,,,space,0.5213,NAN,,NAN,,0,98,98,98,1,99,Charlie,Rej,Participant_Images/5adef850eb60400001539109/5adef850eb60400001539109_Images/5adef850eb60400001539109_Image_2.jpeg,did not like,3.546495948,,,,,,,,,,,,,,
,,,,,,,,,,,,,,,,,,,,,,,s,1,space,0.8051,0,0,0,0,1,0.8373,h,0.5325,,
,,,,,,,,NAN,,NAN,,0,99,99,99,1,100,Charlie,Rej,Participant_Images/5adef850eb60400001539109/5adef850eb60400001539109_Images/5adef850eb60400001539109_Image_3.jpeg,liked,1.672012706,,,,,,,,,,,,,,
,,,,,,space,0.9734,NAN,,NAN,,0,100,100,100,1,101,Charlie,Rej,Participant_Images/5adef850eb60400001539109/5adef850eb60400001539109_Images/5adef850eb60400001539109_Image_20.jpeg,liked,4.942172136,,,,,,,,,,,,,,
,,,,,,space,1.0837,NAN,,NAN,,0,101,101,101,1,102,Charlie,Rej,Participant_Images/5adef850eb60400001539109/5adef850eb60400001539109_Images/5adef850eb60400001539109_Image_27.jpeg,did not like,2.50187214,,,,,,,,,,,,,,
,,,,,,space,1.0206,NAN,,NAN,,0,102,102,102,1,103,Charlie,Rej,Participant_Images/5adef850eb60400001539109/5adef850eb60400001539109_Images/5adef850eb60400001539109_Image_1.jpeg,did not like,2.071164779,,,,,,,,,,,,,,
,,,,,,space,0.9738,NAN,,NAN,,0,103,103,103,1,104,Charlie,Rej,Participant_Images/5adef850eb60400001539109/5adef850eb60400001539109_Images/5adef850eb60400001539109_Image_24.jpeg,did not like,5.336503566,,,,,,,,,,,,,,
,,,,,,,,,,,,,,,,,,,,,,,s,1,space,0.7037,0,0,0,0,1,1.3691,h,0.5892,,
,,,,,,,,NAN,,NAN,,0,104,104,104,1,105,Charlie,Rej,Participant_Images/5adef850eb60400001539109/5adef850eb60400001539109_Images/5adef850eb60400001539109_Image_4.jpeg,liked,2.642157193,,,,,,,,,,,,,,
,,,,,,space,0.9636,NAN,,NAN,,0,105,105,105,1,106,Charlie,Rej,Participant_Images/5adef850eb60400001539109/5adef850eb60400001539109_Images/5adef850eb60400001539109_Image_10.jpeg,did not like,4.456234322,,,,,,,,,,,,,,
,,,,,,space,0.883,NAN,,NAN,,0,106,106,106,1,107,Charlie,Rej,Participant_Images/5adef850eb60400001539109/5adef850eb60400001539109_Images/5adef850eb60400001539109_Image_9.jpeg,did not like,4.438512181,,,,,,,,,,,,,,
,,,,,,space,2.5543,NAN,,NAN,,0,107,107,107,1,108,Charlie,Rej,Participant_Images/5adef850eb60400001539109/5adef850eb60400001539109_Images/5adef850eb60400001539109_Image_12.jpeg,did not like,2.682944783,,,,,,,,,,,,,,
,,,,,,space,0.8683,NAN,,NAN,,0,108,108,108,1,109,Charlie,Rej,Participant_Images/5adef850eb60400001539109/5adef850eb60400001539109_Images/5adef850eb60400001539109_Image_30.jpeg,did not like,4.51984296,,,,,,,,,,,,,,
,,,,,,,,,,,,,,,,,,,,,,,s,1,space,1.2226,0,0,0,0,1,0.9985,h,2.9675,,
,,,,,,,,NAN,,NAN,,0,109,109,109,1,110,Charlie,Rej,Participant_Images/5adef850eb60400001539109/5adef850eb60400001539109_Images/5adef850eb60400001539109_Image_29.jpeg,did not like,3.195382774,,,,,,,,,,,,,,
,,,,,,space,1.0795,NAN,,NAN,,0,110,110,110,1,111,Charlie,Rej,Participant_Images/5adef850eb60400001539109/5adef850eb60400001539109_Images/5adef850eb60400001539109_Image_15.jpeg,did not like,1.779333479,,,,,,,,,,,,,,
,,,,,,space,0.7003,NAN,,NAN,,0,111,111,111,1,112,Charlie,Rej,Participant_Images/5adef850eb60400001539109/5adef850eb60400001539109_Images/5adef850eb60400001539109_Image_14.jpeg,liked,4.312468682,,,,,,,,,,,,,,
,,,,,,space,0.7209,NAN,,NAN,,0,112,112,112,1,113,Charlie,Rej,Participant_Images/5adef850eb60400001539109/5adef850eb60400001539109_Images/5adef850eb60400001539109_Image_11.jpeg,did not like,4.940433059,,,,,,,,,,,,,,
,,,,,,space,0.7363,NAN,,NAN,,0,113,113,113,1,114,Charlie,Rej,Participant_Images/5adef850eb60400001539109/5adef850eb60400001539109_Images/5adef850eb60400001539109_Image_16.jpeg,did not like,2.7105123,,,,,,,,,,,,,,
,,,,,,,,,,,,,,,,,,,,,,,s,1,space,0.7358,0,0,0,0,1,1.903,h,2.5091,,
,,,,,,,,NAN,,NAN,,0,114,114,114,1,115,Charlie,Rej,Participant_Images/5adef850eb60400001539109/5adef850eb60400001539109_Images/5adef850eb60400001539109_Image_22.jpeg,did not like,3.602308302,,,,,,,,,,,,,,
,,,,,,space,1.4003,NAN,,NAN,,0,115,115,115,1,116,Charlie,Rej,Participant_Images/5adef850eb60400001539109/5adef850eb60400001539109_Images/5adef850eb60400001539109_Image_26.jpeg,did not like,4.106391878,,,,,,,,,,,,,,
,,,,,,space,1.5875,NAN,,NAN,,0,116,116,116,1,117,Charlie,Rej,Participant_Images/5adef850eb60400001539109/5adef850eb60400001539109_Images/5adef850eb60400001539109_Image_8.jpeg,did not like,3.799433026,,,,,,,,,,,,,,
,,,,,,space,2.6046,NAN,,NAN,,0,117,117,117,1,118,Charlie,Rej,Participant_Images/5adef850eb60400001539109/5adef850eb60400001539109_Images/5adef850eb60400001539109_Image_28.jpeg,did not like,5.246980764,,,,,,,,,,,,,,
,,,,,,space,2.0377,NAN,,NAN,,0,118,118,118,1,119,Charlie,Rej,Participant_Images/5adef850eb60400001539109/5adef850eb60400001539109_Images/5adef850eb60400001539109_Image_21.jpeg,liked,3.30081769,,,,,,,,,,,,,,
,,,,,,,,,,,,,,,,,,,,,,,s,1,space,0.5736,0,0,0,0,1,1.9162,h,0.6401,,
,,,,,,,,3,,2,,0,119,119,119,1,120,Charlie,Rej,Participant_Images/5adef850eb60400001539109/5adef850eb60400001539109_Images/5adef850eb60400001539109_Image_23.jpeg,liked,1.661473164,,,,,,,,,,,,,,
,,,,space,1.0633,space,0.8011,NAN,,NAN,,0,120,120,120,1,121,Sam,Rej,Participant_Images/5adef850eb60400001539109/5adef850eb60400001539109_Images/5adef850eb60400001539109_Image_16.jpeg,did not like,3.613205605,,,,,,,,,,,,,,
,,,,,,space,0.7037,NAN,,NAN,,0,121,121,121,1,122,Sam,Rej,Participant_Images/5adef850eb60400001539109/5adef850eb60400001539109_Images/5adef850eb60400001539109_Image_4.jpeg,did not like,4.988446431,,,,,,,,,,,,,,
,,,,,,space,0.5714,NAN,,NAN,,0,122,122,122,1,123,Sam,Rej,Participant_Images/5adef850eb60400001539109/5adef850eb60400001539109_Images/5adef850eb60400001539109_Image_21.jpeg,liked,3.470791822,,,,,,,,,,,,,,
,,,,,,space,0.7052,NAN,,NAN,,0,123,123,123,1,124,Sam,Rej,Participant_Images/5adef850eb60400001539109/5adef850eb60400001539109_Images/5adef850eb60400001539109_Image_26.jpeg,did not like,3.820572462,,,,,,,,,,,,,,
,,,,,,,,,,,,,,,,,,,,,,,s,1,space,1.1343,0,0,0,0,1,1.905,h,0.3678,,
,,,,,,,,NAN,,NAN,,0,124,124,124,1,125,Sam,Rej,Participant_Images/5adef850eb60400001539109/5adef850eb60400001539109_Images/5adef850eb60400001539109_Image_6.jpeg,did not like,2.455989137,,,,,,,,,,,,,,
,,,,,,space,0.4823,NAN,,NAN,,0,125,125,125,1,126,Sam,Rej,Participant_Images/5adef850eb60400001539109/5adef850eb60400001539109_Images/5adef850eb60400001539109_Image_24.jpeg,did not like,3.79605092,,,,,,,,,,,,,,
,,,,,,space,0.7186,NAN,,NAN,,0,126,126,126,1,127,Sam,Rej,Participant_Images/5adef850eb60400001539109/5adef850eb60400001539109_Images/5adef850eb60400001539109_Image_27.jpeg,did not like,3.562416326,,,,,,,,,,,,,,
,,,,,,space,0.9386,NAN,,NAN,,0,127,127,127,1,128,Sam,Rej,Participant_Images/5adef850eb60400001539109/5adef850eb60400001539109_Images/5adef850eb60400001539109_Image_14.jpeg,did not like,2.843822497,,,,,,,,,,,,,,
,,,,,,space,1.8293,NAN,,NAN,,0,128,128,128,1,129,Sam,Rej,Participant_Images/5adef850eb60400001539109/5adef850eb60400001539109_Images/5adef850eb60400001539109_Image_23.jpeg,did not like,3.546495948,,,,,,,,,,,,,,
,,,,,,,,,,,,,,,,,,,,,,,,999,space,2.3865,0,0,0,0,1,,,,,
,,,,,,,,NAN,,NAN,,0,129,129,129,1,130,Sam,Rej,Participant_Images/5adef850eb60400001539109/5adef850eb60400001539109_Images/5adef850eb60400001539109_Image_25.jpeg,did not like,1.672012706,,,,,,,,,,,,,,
,,,,,,space,7.789,NAN,,NAN,,0,130,130,130,1,131,Sam,Rej,Participant_Images/5adef850eb60400001539109/5adef850eb60400001539109_Images/5adef850eb60400001539109_Image_11.jpeg,did not like,4.942172136,,,,,,,,,,,,,,
,,,,,,space,1.4965,NAN,,NAN,,0,131,131,131,1,132,Sam,Rej,Participant_Images/5adef850eb60400001539109/5adef850eb60400001539109_Images/5adef850eb60400001539109_Image_15.jpeg,did not like,2.50187214,,,,,,,,,,,,,,
,,,,,,space,0.504,NAN,,NAN,,0,132,132,132,1,133,Sam,Rej,Participant_Images/5adef850eb60400001539109/5adef850eb60400001539109_Images/5adef850eb60400001539109_Image_12.jpeg,liked,2.071164779,,,,,,,,,,,,,,
,,,,,,space,0.5534,NAN,,NAN,,0,133,133,133,1,134,Sam,Rej,Participant_Images/5adef850eb60400001539109/5adef850eb60400001539109_Images/5adef850eb60400001539109_Image_28.jpeg,did not like,5.336503566,,,,,,,,,,,,,,
,,,,,,,,,,,,,,,,,,,,,,,s,1,space,4.9333,0,0,0,0,1,1.4738,h,1.7836,,
,,,,,,,,NAN,,NAN,,0,134,134,134,1,135,Sam,Rej,Participant_Images/5adef850eb60400001539109/5adef850eb60400001539109_Images/5adef850eb60400001539109_Image_22.jpeg,did not like,2.642157193,,,,,,,,,,,,,,
,,,,,,space,3.3218,NAN,,NAN,,0,135,135,135,1,136,Sam,Rej,Participant_Images/5adef850eb60400001539109/5adef850eb60400001539109_Images/5adef850eb60400001539109_Image_13.jpeg,liked,4.456234322,,,,,,,,,,,,,,
,,,,,,space,2.1256,NAN,,NAN,,0,136,136,136,1,137,Sam,Rej,Participant_Images/5adef850eb60400001539109/5adef850eb60400001539109_Images/5adef850eb60400001539109_Image_18.jpeg,did not like,4.438512181,,,,,,,,,,,,,,
,,,,,,space,1.4304,NAN,,NAN,,0,137,137,137,1,138,Sam,Rej,Participant_Images/5adef850eb60400001539109/5adef850eb60400001539109_Images/5adef850eb60400001539109_Image_30.jpeg,liked,2.682944783,,,,,,,,,,,,,,
,,,,,,space,3.7245,NAN,,NAN,,0,138,138,138,1,139,Sam,Rej,Participant_Images/5adef850eb60400001539109/5adef850eb60400001539109_Images/5adef850eb60400001539109_Image_8.jpeg,did not like,4.51984296,,,,,,,,,,,,,,
,,,,,,,,,,,,,,,,,,,,,,,s,1,space,0.4945,0,0,0,0,1,0.8198,,,,
,,,,,,,,NAN,,NAN,,0,139,139,139,1,140,Sam,Rej,Participant_Images/5adef850eb60400001539109/5adef850eb60400001539109_Images/5adef850eb60400001539109_Image_1.jpeg,did not like,3.195382774,,,,,,,,,,,,,,
,,,,,,space,3.0373,NAN,,NAN,,0,140,140,140,1,141,Sam,Rej,Participant_Images/5adef850eb60400001539109/5adef850eb60400001539109_Images/5adef850eb60400001539109_Image_7.jpeg,did not like,1.779333479,,,,,,,,,,,,,,
,,,,,,space,2.1836,NAN,,NAN,,0,141,141,141,1,142,Sam,Rej,Participant_Images/5adef850eb60400001539109/5adef850eb60400001539109_Images/5adef850eb60400001539109_Image_2.jpeg,liked,4.312468682,,,,,,,,,,,,,,
,,,,,,space,3.0707,NAN,,NAN,,0,142,142,142,1,143,Sam,Rej,Participant_Images/5adef850eb60400001539109/5adef850eb60400001539109_Images/5adef850eb60400001539109_Image_3.jpeg,liked,4.940433059,,,,,,,,,,,,,,
,,,,,,space,1.2869,NAN,,NAN,,0,143,143,143,1,144,Sam,Rej,Participant_Images/5adef850eb60400001539109/5adef850eb60400001539109_Images/5adef850eb60400001539109_Image_5.jpeg,liked,2.7105123,,,,,,,,,,,,,,
,,,,,,,,,,,,,,,,,,,,,,,s,1,space,6.7624,0,0,0,0,1,1.867,,,,
,,,,,,,,NAN,,NAN,,0,144,144,144,1,145,Sam,Rej,Participant_Images/5adef850eb60400001539109/5adef850eb60400001539109_Images/5adef850eb60400001539109_Image_10.jpeg,liked,3.602308302,,,,,,,,,,,,,,
,,,,,,space,2.5324,NAN,,NAN,,0,145,145,145,1,146,Sam,Rej,Participant_Images/5adef850eb60400001539109/5adef850eb60400001539109_Images/5adef850eb60400001539109_Image_19.jpeg,did not like,4.106391878,,,,,,,,,,,,,,
,,,,,,space,2.3391,NAN,,NAN,,0,146,146,146,1,147,Sam,Rej,Participant_Images/5adef850eb60400001539109/5adef850eb60400001539109_Images/5adef850eb60400001539109_Image_9.jpeg,liked,3.799433026,,,,,,,,,,,,,,
,,,,,,space,1.8638,NAN,,NAN,,0,147,147,147,1,148,Sam,Rej,Participant_Images/5adef850eb60400001539109/5adef850eb60400001539109_Images/5adef850eb60400001539109_Image_29.jpeg,did not like,5.246980764,,,,,,,,,,,,,,
,,,,,,space,4.4116,NAN,,NAN,,0,148,148,148,1,149,Sam,Rej,Participant_Images/5adef850eb60400001539109/5adef850eb60400001539109_Images/5adef850eb60400001539109_Image_20.jpeg,did not like,3.30081769,,,,,,,,,,,,,,
,,,,,,,,,,,,,,,,,,,,,,,s,1,space,5.1036,0,0,0,0,1,2.1534,h,1.1981,,
,,,,,,,,3,,2,,0,149,149,149,1,150,Sam,Rej,Participant_Images/5adef850eb60400001539109/5adef850eb60400001539109_Images/5adef850eb60400001539109_Image_17.jpeg,did not like,1.661473164,,,,,,,,,,,,,,
,,,,,,,,,,,,,,,,,,,,,,,,,,,,,,,,,,,space,2.4198
