PROLIFIC_ID,endwelcomescreen_keys.keys,endwelcomescreen_keys.rt,endinstructionscreen_keys.keys,endinstructionscreen_keys.rt,endpartnermatch_keys.keys,endpartnermatch_keys.rt,sharenextphoto_key.keys,sharenextphoto_key.rt,salience_rating,key_resp.keys,stress_level,stresslevel_keypress.keys,entiretaskloop.thisRepN,entiretaskloop.thisTrialN,entiretaskloop.thisN,entiretaskloop.thisIndex,entiretaskloop.ran,TrialNumber,Partner,Condition,Photos,Feedback,FeedbackWait,choice_keys.keys,playlottery,resumeafterlottery_keys.keys,resumeafterlottery_keys.rt,lotteryloop.thisRepN,lotteryloop.thisTrialN,lotteryloop.thisN,lotteryloop.thisIndex,lotteryloop.ran,choice_keys.rt,lotteryguess_keys.keys,lotteryguess_keys.rt,end_screen_keys.keys,end_screen_keys.rt
5adef850eb60400001539109,space,8.8838,,,,,,,,,,,,,,,,,,,,,,,,,,,,,,,,,,,
5adef850eb60400001539109,,,,,,,,,,,,,,,,,,,,,,,,,,,,,,,,,,,,,
5adef850eb60400001539109,,,space,3.6178,,,,,,,,,,,,,,,,,,,,,,,,,,,,,,,,,
5adef850eb60400001539109,,,,,space,1.5914,space,0.9403,NAN,,NAN,,0.0,0.0,0.0,0.0,1.0,1.0,Alex,Acc,Participant_Images/5adef850eb60400001539109/5adef850eb60400001539109_Images/5adef850eb60400001539109_Image_23.jpeg,liked,3.613205605,,,,,,,,,,,,,,
5adef850eb60400001539109,,,,,,,space,0.6338,NAN,,NAN,,0.0,1.0,1.0,1.0,1.0,2.0,Alex,Acc,Participant_Images/5adef850eb60400001539109/5adef850eb60400001539109_Images/5adef850eb60400001539109_Image_20.jpeg,liked,4.988446431,,,,,,,,,,,,,,
5adef850eb60400001539109,,,,,,,space,0.5498,NAN,,NAN,,0.0,2.0,2.0,2.0,1.0,3.0,Alex,Acc,Participant_Images/5adef850eb60400001539109/5adef850eb60400001539109_Images/5adef850eb60400001539109_Image_10.jpeg,liked,3.470791822,,,,,,,,,,,,,,
5adef850eb60400001539109,,,,,,,space,0.3374,NAN,,NAN,,0.0,3.0,3.0,3.0,1.0,4.0,Alex,Acc,Participant_Images/5adef850eb60400001539109/5adef850eb60400001539109_Images/5adef850eb60400001539109_Image_7.jpeg,did not like,3.820572462,,,,,,,,,,,,,,
5adef850eb60400001539109,,,,,,,,,,,,,,,,,,,,,,,,,999.0,space,3.9193,0.0,0.0,0.0,0.0,1.0,,,,,
5adef850eb60400001539109,,,,,,,,,NAN,,NAN,,0.0,4.0,4.0,4.0,1.0,5.0,Alex,Acc,Participant_Images/5adef850eb60400001539109/5adef850eb60400001539109_Images/5adef850eb60400001539109_Image_16.jpeg,liked,2.455989137,,,,,,,,,,,,,,
5adef850eb60400001539109,,,,,,,space,0.5876,NAN,,NAN,,0.0,5.0,5.0,5.0,1.0,6.0,Alex,Acc,Participant_Images/5adef850eb60400001539109/5adef850eb60400001539109_Images/5adef850eb60400001539109_Image_11.jpeg,did not like,3.79605092,,,,,,,,,,,,,,
5adef850eb60400001539109,,,,,,,space,0.7751,NAN,,NAN,,0.0,6.0,6.0,6.0,1.0,7.0,Alex,Acc,Participant_Images/5adef850eb60400001539109/5adef850eb60400001539109_Images/5adef850eb60400001539109_Image_29.jpeg,liked,3.562416326,,,,,,,,,,,,,,
5adef850eb60400001539109,,,,,,,space,0.4365,NAN,,NAN,,0.0,7.0,7.0,7.0,1.0,8.0,Alex,Acc,Participant_Images/5adef850eb60400001539109/5adef850eb60400001539109_Images/5adef850eb60400001539109_Image_26.jpeg,did not like,2.843822497,,,,,,,,,,,,,,
5adef850eb60400001539109,,,,,,,space,0.4841,NAN,,NAN,,0.0,8.0,8.0,8.0,1.0,9.0,Alex,Acc,Participant_Images/5adef850eb60400001539109/5adef850eb60400001539109_Images/5adef850eb60400001539109_Image_25.jpeg,liked,3.546495948,,,,,,,,,,,,,,
5adef850eb60400001539109,,,,,,,,,,,,,,,,,,,,,,,,,999.0,space,0.8151,0.0,0.0,0.0,0.0,1.0,,,,,
5adef850eb60400001539109,,,,,,,,,NAN,,NAN,,0.0,9.0,9.0,9.0,1.0,10.0,Alex,Acc,Participant_Images/5adef850eb60400001539109/5adef850eb60400001539109_Images/5adef850eb60400001539109_Image_21.jpeg,liked,1.672012706,,,,,,,,,,,,,,
5adef850eb60400001539109,,,,,,,space,0.5548,NAN,,NAN,,0.0,10.0,10.0,10.0,1.0,11.0,Alex,Acc,Participant_Images/5adef850eb60400001539109/5adef850eb60400001539109_Images/5adef850eb60400001539109_Image_6.jpeg,liked,4.942172136,,,,,,,,,,,,,,
5adef850eb60400001539109,,,,,,,space,1.205,NAN,,NAN,,0.0,11.0,11.0,11.0,1.0,12.0,Alex,Acc,Participant_Images/5adef850eb60400001539109/5adef850eb60400001539109_Images/5adef850eb60400001539109_Image_9.jpeg,liked,2.50187214,,,,,,,,,,,,,,
5adef850eb60400001539109,,,,,,,space,0.5372,NAN,,NAN,,0.0,12.0,12.0,12.0,1.0,13.0,Alex,Acc,Participant_Images/5adef850eb60400001539109/5adef850eb60400001539109_Images/5adef850eb60400001539109_Image_12.jpeg,did not like,2.071164779,,,,,,,,,,,,,,
5adef850eb60400001539109,,,,,,,space,1.3634,NAN,,NAN,,0.0,13.0,13.0,13.0,1.0,14.0,Alex,Acc,Participant_Images/5adef850eb60400001539109/5adef850eb60400001539109_Images/5adef850eb60400001539109_Image_27.jpeg,liked,5.336503566,,,,,,,,,,,,,,
5adef850eb60400001539109,,,,,,,,,,,,,,,,,,,,,,,,s,1.0,space,0.7239,0.0,0.0,0.0,0.0,1.0,1.0452,,,,
5adef850eb60400001539109,,,,,,,,,NAN,,NAN,,0.0,14.0,14.0,14.0,1.0,15.0,Alex,Acc,Participant_Images/5adef850eb60400001539109/5adef850eb60400001539109_Images/5adef850eb60400001539109_Image_4.jpeg,did not like,2.642157193,,,,,,,,,,,,,,
5adef850eb60400001539109,,,,,,,space,0.7376,NAN,,NAN,,0.0,15.0,15.0,15.0,1.0,16.0,Alex,Acc,Participant_Images/5adef850eb60400001539109/5adef850eb60400001539109_Images/5adef850eb60400001539109_Image_3.jpeg,liked,4.456234322,,,,,,,,,,,,,,
5adef850eb60400001539109,,,,,,,space,1.0156,NAN,,NAN,,0.0,16.0,16.0,16.0,1.0,17.0,Alex,Acc,Participant_Images/5adef850eb60400001539109/5adef850eb60400001539109_Images/5adef850eb60400001539109_Image_22.jpeg,did not like,4.438512181,,,,,,,,,,,,,,
5adef850eb60400001539109,,,,,,,space,0.4672,NAN,,NAN,,0.0,17.0,17.0,17.0,1.0,18.0,Alex,Acc,Participant_Images/5adef850eb60400001539109/5adef850eb60400001539109_Images/5adef850eb60400001539109_Image_24.jpeg,liked,2.682944783,,,,,,,,,,,,,,
5adef850eb60400001539109,,,,,,,space,0.5042,NAN,,NAN,,0.0,18.0,18.0,18.0,1.0,19.0,Alex,Acc,Participant_Images/5adef850eb60400001539109/5adef850eb60400001539109_Images/5adef850eb60400001539109_Image_2.jpeg,liked,4.51984296,,,,,,,,,,,,,,
5adef850eb60400001539109,,,,,,,,,,,,,,,,,,,,,,,,s,1.0,space,0.5834,0.0,0.0,0.0,0.0,1.0,2.0938,h,1.0199,,
5adef850eb60400001539109,,,,,,,,,NAN,,NAN,,0.0,19.0,19.0,19.0,1.0,20.0,Alex,Acc,Participant_Images/5adef850eb60400001539109/5adef850eb60400001539109_Images/5adef850eb60400001539109_Image_5.jpeg,liked,3.195382774,,,,,,,,,,,,,,
5adef850eb60400001539109,,,,,,,space,1.665,NAN,,NAN,,0.0,20.0,20.0,20.0,1.0,21.0,Alex,Acc,Participant_Images/5adef850eb60400001539109/5adef850eb60400001539109_Images/5adef850eb60400001539109_Image_8.jpeg,liked,1.779333479,,,,,,,,,,,,,,
5adef850eb60400001539109,,,,,,,space,0.5644,NAN,,NAN,,0.0,21.0,21.0,21.0,1.0,22.0,Alex,Acc,Participant_Images/5adef850eb60400001539109/5adef850eb60400001539109_Images/5adef850eb60400001539109_Image_18.jpeg,liked,4.312468682,,,,,,,,,,,,,,
5adef850eb60400001539109,,,,,,,space,1.0374,NAN,,NAN,,0.0,22.0,22.0,22.0,1.0,23.0,Alex,Acc,Participant_Images/5adef850eb60400001539109/5adef850eb60400001539109_Images/5adef850eb60400001539109_Image_30.jpeg,liked,4.940433059,,,,,,,,,,,,,,
5adef850eb60400001539109,,,,,,,space,1.084,NAN,,NAN,,0.0,23.0,23.0,23.0,1.0,24.0,Alex,Acc,Participant_Images/5adef850eb60400001539109/5adef850eb60400001539109_Images/5adef850eb60400001539109_Image_1.jpeg,did not like,2.7105123,,,,,,,,,,,,,,
5adef850eb60400001539109,,,,,,,,,,,,,,,,,,,,,,,,s,1.0,space,1.2559,0.0,0.0,0.0,0.0,1.0,1.2024,h,0.5222,,
5adef850eb60400001539109,,,,,,,,,NAN,,NAN,,0.0,24.0,24.0,24.0,1.0,25.0,Alex,Acc,Participant_Images/5adef850eb60400001539109/5adef850eb60400001539109_Images/5adef850eb60400001539109_Image_19.jpeg,liked,3.602308302,,,,,,,,,,,,,,
5adef850eb60400001539109,,,,,,,space,0.6208,NAN,,NAN,,0.0,25.0,25.0,25.0,1.0,26.0,Alex,Acc,Participant_Images/5adef850eb60400001539109/5adef850eb60400001539109_Images/5adef850eb60400001539109_Image_28.jpeg,liked,4.106391878,,,,,,,,,,,,,,
5adef850eb60400001539109,,,,,,,space,1.6406,NAN,,NAN,,0.0,26.0,26.0,26.0,1.0,27.0,Alex,Acc,Participant_Images/5adef850eb60400001539109/5adef850eb60400001539109_Images/5adef850eb60400001539109_Image_13.jpeg,liked,3.799433026,,,,,,,,,,,,,,
5adef850eb60400001539109,,,,,,,space,0.4994,NAN,,NAN,,0.0,27.0,27.0,27.0,1.0,28.0,Alex,Acc,Participant_Images/5adef850eb60400001539109/5adef850eb60400001539109_Images/5adef850eb60400001539109_Image_15.jpeg,liked,5.246980764,,,,,,,,,,,,,,
5adef850eb60400001539109,,,,,,,space,0.6809,NAN,,NAN,,0.0,28.0,28.0,28.0,1.0,29.0,Alex,Acc,Participant_Images/5adef850eb60400001539109/5adef850eb60400001539109_Images/5adef850eb60400001539109_Image_17.jpeg,did not like,3.30081769,,,,,,,,,,,,,,
5adef850eb60400001539109,,,,,,,,,,,,,,,,,,,,,,,,s,1.0,space,0.7702,0.0,0.0,0.0,0.0,1.0,1.4328,h,1.1959,,
5adef850eb60400001539109,,,,,,,,,3,,6,,0.0,29.0,29.0,29.0,1.0,30.0,Alex,Acc,Participant_Images/5adef850eb60400001539109/5adef850eb60400001539109_Images/5adef850eb60400001539109_Image_14.jpeg,did not like,1.661473164,,,,,,,,,,,,,,
5adef850eb60400001539109,,,,,space,3.2468,space,0.7041,NAN,,NAN,,0.0,30.0,30.0,30.0,1.0,31.0,Riley,Neutral,Participant_Images/5adef850eb60400001539109/5adef850eb60400001539109_Images/5adef850eb60400001539109_Image_18.jpeg,liked,3.613205605,,,,,,,,,,,,,,
5adef850eb60400001539109,,,,,,,space,1.6165,NAN,,NAN,,0.0,31.0,31.0,31.0,1.0,32.0,Riley,Neutral,Participant_Images/5adef850eb60400001539109/5adef850eb60400001539109_Images/5adef850eb60400001539109_Image_9.jpeg,did not like,4.988446431,,,,,,,,,,,,,,
5adef850eb60400001539109,,,,,,,space,0.4529,NAN,,NAN,,0.0,32.0,32.0,32.0,1.0,33.0,Riley,Neutral,Participant_Images/5adef850eb60400001539109/5adef850eb60400001539109_Images/5adef850eb60400001539109_Image_28.jpeg,did not like,3.470791822,,,,,,,,,,,,,,
5adef850eb60400001539109,,,,,,,space,2.1838,NAN,,NAN,,0.0,33.0,33.0,33.0,1.0,34.0,Riley,Neutral,Participant_Images/5adef850eb60400001539109/5adef850eb60400001539109_Images/5adef850eb60400001539109_Image_7.jpeg,did not like,3.820572462,,,,,,,,,,,,,,
5adef850eb60400001539109,,,,,,,,,,,,,,,,,,,,,,,,s,1.0,space,0.9698,0.0,0.0,0.0,0.0,1.0,2.1506,h,0.929,,
5adef850eb60400001539109,,,,,,,,,NAN,,NAN,,0.0,34.0,34.0,34.0,1.0,35.0,Riley,Neutral,Participant_Images/5adef850eb60400001539109/5adef850eb60400001539109_Images/5adef850eb60400001539109_Image_8.jpeg,did not like,2.455989137,,,,,,,,,,,,,,
5adef850eb60400001539109,,,,,,,space,0.6858,NAN,,NAN,,0.0,35.0,35.0,35.0,1.0,36.0,Riley,Neutral,Participant_Images/5adef850eb60400001539109/5adef850eb60400001539109_Images/5adef850eb60400001539109_Image_17.jpeg,did not like,3.79605092,,,,,,,,,,,,,,
5adef850eb60400001539109,,,,,,,space,0.6854,NAN,,NAN,,0.0,36.0,36.0,36.0,1.0,37.0,Riley,Neutral,Participant_Images/5adef850eb60400001539109/5adef850eb60400001539109_Images/5adef850eb60400001539109_Image_30.jpeg,did not like,3.562416326,,,,,,,,,,,,,,
5adef850eb60400001539109,,,,,,,space,1.0008,NAN,,NAN,,0.0,37.0,37.0,37.0,1.0,38.0,Riley,Neutral,Participant_Images/5adef850eb60400001539109/5adef850eb60400001539109_Images/5adef850eb60400001539109_Image_13.jpeg,liked,2.843822497,,,,,,,,,,,,,,
5adef850eb60400001539109,,,,,,,space,0.5871,NAN,,NAN,,0.0,38.0,38.0,38.0,1.0,39.0,Riley,Neutral,Participant_Images/5adef850eb60400001539109/5adef850eb60400001539109_Images/5adef850eb60400001539109_Image_4.jpeg,liked,3.546495948,,,,,,,,,,,,,,
5adef850eb60400001539109,,,,,,,,,,,,,,,,,,,,,,,,s,1.0,space,1.071,0.0,0.0,0.0,0.0,1.0,2.5315,h,1.2255,,
5adef850eb60400001539109,,,,,,,,,NAN,,NAN,,0.0,39.0,39.0,39.0,1.0,40.0,Riley,Neutral,Participant_Images/5adef850eb60400001539109/5adef850eb60400001539109_Images/5adef850eb60400001539109_Image_5.jpeg,liked,1.672012706,,,,,,,,,,,,,,
5adef850eb60400001539109,,,,,,,space,1.0077,NAN,,NAN,,0.0,40.0,40.0,40.0,1.0,41.0,Riley,Neutral,Participant_Images/5adef850eb60400001539109/5adef850eb60400001539109_Images/5adef850eb60400001539109_Image_12.jpeg,liked,4.942172136,,,,,,,,,,,,,,
5adef850eb60400001539109,,,,,,,space,0.6463,NAN,,NAN,,0.0,41.0,41.0,41.0,1.0,42.0,Riley,Neutral,Participant_Images/5adef850eb60400001539109/5adef850eb60400001539109_Images/5adef850eb60400001539109_Image_29.jpeg,did not like,2.50187214,,,,,,,,,,,,,,
5adef850eb60400001539109,,,,,,,space,1.1211,NAN,,NAN,,0.0,42.0,42.0,42.0,1.0,43.0,Riley,Neutral,Participant_Images/5adef850eb60400001539109/5adef850eb60400001539109_Images/5adef850eb60400001539109_Image_26.jpeg,liked,2.071164779,,,,,,,,,,,,,,
5adef850eb60400001539109,,,,,,,space,0.5067,NAN,,NAN,,0.0,43.0,43.0,43.0,1.0,44.0,Riley,Neutral,Participant_Images/5adef850eb60400001539109/5adef850eb60400001539109_Images/5adef850eb60400001539109_Image_16.jpeg,did not like,5.336503566,,,,,,,,,,,,,,
5adef850eb60400001539109,,,,,,,,,,,,,,,,,,,,,,,,s,1.0,space,0.615,0.0,0.0,0.0,0.0,1.0,1.5206,h,2.3968,,
5adef850eb60400001539109,,,,,,,,,NAN,,NAN,,0.0,44.0,44.0,44.0,1.0,45.0,Riley,Neutral,Participant_Images/5adef850eb60400001539109/5adef850eb60400001539109_Images/5adef850eb60400001539109_Image_23.jpeg,did not like,2.642157193,,,,,,,,,,,,,,
5adef850eb60400001539109,,,,,,,space,0.9208,NAN,,NAN,,0.0,45.0,45.0,45.0,1.0,46.0,Riley,Neutral,Participant_Images/5adef850eb60400001539109/5adef850eb60400001539109_Images/5adef850eb60400001539109_Image_10.jpeg,liked,4.456234322,,,,,,,,,,,,,,
5adef850eb60400001539109,,,,,,,space,0.6214,NAN,,NAN,,0.0,46.0,46.0,46.0,1.0,47.0,Riley,Neutral,Participant_Images/5adef850eb60400001539109/5adef850eb60400001539109_Images/5adef850eb60400001539109_Image_24.jpeg,did not like,4.438512181,,,,,,,,,,,,,,
5adef850eb60400001539109,,,,,,,space,0.6684,NAN,,NAN,,0.0,47.0,47.0,47.0,1.0,48.0,Riley,Neutral,Participant_Images/5adef850eb60400001539109/5adef850eb60400001539109_Images/5adef850eb60400001539109_Image_2.jpeg,liked,2.682944783,,,,,,,,,,,,,,
5adef850eb60400001539109,,,,,,,space,0.8163,NAN,,NAN,,0.0,48.0,48.0,48.0,1.0,49.0,Riley,Neutral,Participant_Images/5adef850eb60400001539109/5adef850eb60400001539109_Images/5adef850eb60400001539109_Image_25.jpeg,did not like,4.51984296,,,,,,,,,,,,,,
5adef850eb60400001539109,,,,,,,,,,,,,,,,,,,,,,,,s,1.0,space,0.5736,0.0,0.0,0.0,0.0,1.0,1.5537,h,0.66,,
5adef850eb60400001539109,,,,,,,,,NAN,,NAN,,0.0,49.0,49.0,49.0,1.0,50.0,Riley,Neutral,Participant_Images/5adef850eb60400001539109/5adef850eb60400001539109_Images/5adef850eb60400001539109_Image_27.jpeg,liked,3.195382774,,,,,,,,,,,,,,
5adef850eb60400001539109,,,,,,,space,1.9188,NAN,,NAN,,0.0,50.0,50.0,50.0,1.0,51.0,Riley,Neutral,Participant_Images/5adef850eb60400001539109/5adef850eb60400001539109_Images/5adef850eb60400001539109_Image_15.jpeg,did not like,1.779333479,,,,,,,,,,,,,,
5adef850eb60400001539109,,,,,,,space,2.0876,NAN,,NAN,,0.0,51.0,51.0,51.0,1.0,52.0,Riley,Neutral,Participant_Images/5adef850eb60400001539109/5adef850eb60400001539109_Images/5adef850eb60400001539109_Image_14.jpeg,did not like,4.312468682,,,,,,,,,,,,,,
5adef850eb60400001539109,,,,,,,space,0.719,NAN,,NAN,,0.0,52.0,52.0,52.0,1.0,53.0,Riley,Neutral,Participant_Images/5adef850eb60400001539109/5adef850eb60400001539109_Images/5adef850eb60400001539109_Image_6.jpeg,did not like,4.940433059,,,,,,,,,,,,,,
5adef850eb60400001539109,,,,,,,space,0.9716,NAN,,NAN,,0.0,53.0,53.0,53.0,1.0,54.0,Riley,Neutral,Participant_Images/5adef850eb60400001539109/5adef850eb60400001539109_Images/5adef850eb60400001539109_Image_20.jpeg,liked,2.7105123,,,,,,,,,,,,,,
5adef850eb60400001539109,,,,,,,,,,,,,,,,,,,,,,,,s,1.0,space,0.6037,0.0,0.0,0.0,0.0,1.0,1.5414,h,1.0978,,
5adef850eb60400001539109,,,,,,,,,NAN,,NAN,,0.0,54.0,54.0,54.0,1.0,55.0,Riley,Neutral,Participant_Images/5adef850eb60400001539109/5adef850eb60400001539109_Images/5adef850eb60400001539109_Image_21.jpeg,did not like,3.602308302,,,,,,,,,,,,,,
5adef850eb60400001539109,,,,,,,space,0.5924,NAN,,NAN,,0.0,55.0,55.0,55.0,1.0,56.0,Riley,Neutral,Participant_Images/5adef850eb60400001539109/5adef850eb60400001539109_Images/5adef850eb60400001539109_Image_3.jpeg,liked,4.106391878,,,,,,,,,,,,,,
5adef850eb60400001539109,,,,,,,space,0.7553,NAN,,NAN,,0.0,56.0,56.0,56.0,1.0,57.0,Riley,Neutral,Participant_Images/5adef850eb60400001539109/5adef850eb60400001539109_Images/5adef850eb60400001539109_Image_19.jpeg,liked,3.799433026,,,,,,,,,,,,,,
5adef850eb60400001539109,,,,,,,space,0.986,NAN,,NAN,,0.0,57.0,57.0,57.0,1.0,58.0,Riley,Neutral,Participant_Images/5adef850eb60400001539109/5adef850eb60400001539109_Images/5adef850eb60400001539109_Image_1.jpeg,liked,5.246980764,,,,,,,,,,,,,,
5adef850eb60400001539109,,,,,,,space,1.0031,NAN,,NAN,,0.0,58.0,58.0,58.0,1.0,59.0,Riley,Neutral,Participant_Images/5adef850eb60400001539109/5adef850eb60400001539109_Images/5adef850eb60400001539109_Image_11.jpeg,liked,3.30081769,,,,,,,,,,,,,,
5adef850eb60400001539109,,,,,,,,,,,,,,,,,,,,,,,,s,1.0,space,1.187,0.0,0.0,0.0,0.0,1.0,1.3475,h,1.121,,
5adef850eb60400001539109,,,,,,,,,3,,4,,0.0,59.0,59.0,59.0,1.0,60.0,Riley,Neutral,Participant_Images/5adef850eb60400001539109/5adef850eb60400001539109_Images/5adef850eb60400001539109_Image_22.jpeg,liked,1.661473164,,,,,,,,,,,,,,
5adef850eb60400001539109,,,,,space,2.3603,space,0.6663,NAN,,NAN,,0.0,60.0,60.0,60.0,1.0,61.0,Taylor,Acc,Participant_Images/5adef850eb60400001539109/5adef850eb60400001539109_Images/5adef850eb60400001539109_Image_12.jpeg,liked,3.613205605,,,,,,,,,,,,,,
5adef850eb60400001539109,,,,,,,space,2.0906,NAN,,NAN,,0.0,61.0,61.0,61.0,1.0,62.0,Taylor,Acc,Participant_Images/5adef850eb60400001539109/5adef850eb60400001539109_Images/5adef850eb60400001539109_Image_25.jpeg,did not like,4.988446431,,,,,,,,,,,,,,
5adef850eb60400001539109,,,,,,,space,3.9511,NAN,,NAN,,0.0,62.0,62.0,62.0,1.0,63.0,Taylor,Acc,Participant_Images/5adef850eb60400001539109/5adef850eb60400001539109_Images/5adef850eb60400001539109_Image_28.jpeg,liked,3.470791822,,,,,,,,,,,,,,
5adef850eb60400001539109,,,,,,,space,1.4179,NAN,,NAN,,0.0,63.0,63.0,63.0,1.0,64.0,Taylor,Acc,Participant_Images/5adef850eb60400001539109/5adef850eb60400001539109_Images/5adef850eb60400001539109_Image_23.jpeg,liked,3.820572462,,,,,,,,,,,,,,
5adef850eb60400001539109,,,,,,,,,,,,,,,,,,,,,,,,s,1.0,space,1.0163,0.0,0.0,0.0,0.0,1.0,3.0733,h,0.4129,,
5adef850eb60400001539109,,,,,,,,,NAN,,NAN,,0.0,64.0,64.0,64.0,1.0,65.0,Taylor,Acc,Participant_Images/5adef850eb60400001539109/5adef850eb60400001539109_Images/5adef850eb60400001539109_Image_1.jpeg,liked,2.455989137,,,,,,,,,,,,,,
5adef850eb60400001539109,,,,,,,space,1.603,NAN,,NAN,,0.0,65.0,65.0,65.0,1.0,66.0,Taylor,Acc,Participant_Images/5adef850eb60400001539109/5adef850eb60400001539109_Images/5adef850eb60400001539109_Image_5.jpeg,liked,3.79605092,,,,,,,,,,,,,,
5adef850eb60400001539109,,,,,,,space,0.6338,NAN,,NAN,,0.0,66.0,66.0,66.0,1.0,67.0,Taylor,Acc,Participant_Images/5adef850eb60400001539109/5adef850eb60400001539109_Images/5adef850eb60400001539109_Image_15.jpeg,liked,3.562416326,,,,,,,,,,,,,,
5adef850eb60400001539109,,,,,,,space,1.0694,NAN,,NAN,,0.0,67.0,67.0,67.0,1.0,68.0,Taylor,Acc,Participant_Images/5adef850eb60400001539109/5adef850eb60400001539109_Images/5adef850eb60400001539109_Image_11.jpeg,did not like,2.843822497,,,,,,,,,,,,,,
5adef850eb60400001539109,,,,,,,space,0.554,NAN,,NAN,,0.0,68.0,68.0,68.0,1.0,69.0,Taylor,Acc,Participant_Images/5adef850eb60400001539109/5adef850eb60400001539109_Images/5adef850eb60400001539109_Image_2.jpeg,did not like,3.546495948,,,,,,,,,,,,,,
5adef850eb60400001539109,,,,,,,,,,,,,,,,,,,,,,,,s,1.0,space,3.6174,0.0,0.0,0.0,0.0,1.0,1.6736,h,1.5329,,
5adef850eb60400001539109,,,,,,,,,NAN,,NAN,,0.0,69.0,69.0,69.0,1.0,70.0,Taylor,Acc,Participant_Images/5adef850eb60400001539109/5adef850eb60400001539109_Images/5adef850eb60400001539109_Image_22.jpeg,did not like,1.672012706,,,,,,,,,,,,,,
5adef850eb60400001539109,,,,,,,space,1.0381,NAN,,NAN,,0.0,70.0,70.0,70.0,1.0,71.0,Taylor,Acc,Participant_Images/5adef850eb60400001539109/5adef850eb60400001539109_Images/5adef850eb60400001539109_Image_24.jpeg,liked,4.942172136,,,,,,,,,,,,,,
5adef850eb60400001539109,,,,,,,space,2.4394,NAN,,NAN,,0.0,71.0,71.0,71.0,1.0,72.0,Taylor,Acc,Participant_Images/5adef850eb60400001539109/5adef850eb60400001539109_Images/5adef850eb60400001539109_Image_30.jpeg,liked,2.50187214,,,,,,,,,,,,,,
5adef850eb60400001539109,,,,,,,space,2.0684,NAN,,NAN,,0.0,72.0,72.0,72.0,1.0,73.0,Taylor,Acc,Participant_Images/5adef850eb60400001539109/5adef850eb60400001539109_Images/5adef850eb60400001539109_Image_13.jpeg,liked,2.071164779,,,,,,,,,,,,,,
5adef850eb60400001539109,,,,,,,space,0.7182,NAN,,NAN,,0.0,73.0,73.0,73.0,1.0,74.0,Taylor,Acc,Participant_Images/5adef850eb60400001539109/5adef850eb60400001539109_Images/5adef850eb60400001539109_Image_26.jpeg,did not like,5.336503566,,,,,,,,,,,,,,
5adef850eb60400001539109,,,,,,,,,,,,,,,,,,,,,,,,s,1.0,space,5.8786,0.0,0.0,0.0,0.0,1.0,1.7639,h,2.2675,,
5adef850eb60400001539109,,,,,,,,,NAN,,NAN,,0.0,74.0,74.0,74.0,1.0,75.0,Taylor,Acc,Participant_Images/5adef850eb60400001539109/5adef850eb60400001539109_Images/5adef850eb60400001539109_Image_18.jpeg,liked,2.642157193,,,,,,,,,,,,,,
5adef850eb60400001539109,,,,,,,space,4.1213,NAN,,NAN,,0.0,75.0,75.0,75.0,1.0,76.0,Taylor,Acc,Participant_Images/5adef850eb60400001539109/5adef850eb60400001539109_Images/5adef850eb60400001539109_Image_19.jpeg,liked,4.456234322,,,,,,,,,,,,,,
5adef850eb60400001539109,,,,,,,space,0.5577,NAN,,NAN,,0.0,76.0,76.0,76.0,1.0,77.0,Taylor,Acc,Participant_Images/5adef850eb60400001539109/5adef850eb60400001539109_Images/5adef850eb60400001539109_Image_4.jpeg,did not like,4.438512181,,,,,,,,,,,,,,
5adef850eb60400001539109,,,,,,,space,0.5558,NAN,,NAN,,0.0,77.0,77.0,77.0,1.0,78.0,Taylor,Acc,Participant_Images/5adef850eb60400001539109/5adef850eb60400001539109_Images/5adef850eb60400001539109_Image_27.jpeg,did not like,2.682944783,,,,,,,,,,,,,,
5adef850eb60400001539109,,,,,,,space,0.7207,NAN,,NAN,,0.0,78.0,78.0,78.0,1.0,79.0,Taylor,Acc,Participant_Images/5adef850eb60400001539109/5adef850eb60400001539109_Images/5adef850eb60400001539109_Image_14.jpeg,liked,4.51984296,,,,,,,,,,,,,,
5adef850eb60400001539109,,,,,,,,,,,,,,,,,,,,,,,,s,1.0,space,0.6552,0.0,0.0,0.0,0.0,1.0,0.8439,h,0.3584,,
5adef850eb60400001539109,,,,,,,,,NAN,,NAN,,0.0,79.0,79.0,79.0,1.0,80.0,Taylor,Acc,Participant_Images/5adef850eb60400001539109/5adef850eb60400001539109_Images/5adef850eb60400001539109_Image_29.jpeg,liked,3.195382774,,,,,,,,,,,,,,
5adef850eb60400001539109,,,,,,,space,1.0877,NAN,,NAN,,0.0,80.0,80.0,80.0,1.0,81.0,Taylor,Acc,Participant_Images/5adef850eb60400001539109/5adef850eb60400001539109_Images/5adef850eb60400001539109_Image_6.jpeg,liked,1.779333479,,,,,,,,,,,,,,
5adef850eb60400001539109,,,,,,,space,0.6174,NAN,,NAN,,0.0,81.0,81.0,81.0,1.0,82.0,Taylor,Acc,Participant_Images/5adef850eb60400001539109/5adef850eb60400001539109_Images/5adef850eb60400001539109_Image_7.jpeg,liked,4.312468682,,,,,,,,,,,,,,
5adef850eb60400001539109,,,,,,,space,0.7668,NAN,,NAN,,0.0,82.0,82.0,82.0,1.0,83.0,Taylor,Acc,Participant_Images/5adef850eb60400001539109/5adef850eb60400001539109_Images/5adef850eb60400001539109_Image_20.jpeg,did not like,4.940433059,,,,,,,,,,,,,,
5adef850eb60400001539109,,,,,,,space,0.5326,NAN,,NAN,,0.0,83.0,83.0,83.0,1.0,84.0,Taylor,Acc,Participant_Images/5adef850eb60400001539109/5adef850eb60400001539109_Images/5adef850eb60400001539109_Image_16.jpeg,liked,2.7105123,,,,,,,,,,,,,,
5adef850eb60400001539109,,,,,,,,,,,,,,,,,,,,,,,,s,1.0,space,0.9171,0.0,0.0,0.0,0.0,1.0,0.9306,h,0.6981,,
5adef850eb60400001539109,,,,,,,,,NAN,,NAN,,0.0,84.0,84.0,84.0,1.0,85.0,Taylor,Acc,Participant_Images/5adef850eb60400001539109/5adef850eb60400001539109_Images/5adef850eb60400001539109_Image_8.jpeg,liked,3.602308302,,,,,,,,,,,,,,
5adef850eb60400001539109,,,,,,,space,0.8178,NAN,,NAN,,0.0,85.0,85.0,85.0,1.0,86.0,Taylor,Acc,Participant_Images/5adef850eb60400001539109/5adef850eb60400001539109_Images/5adef850eb60400001539109_Image_21.jpeg,liked,4.106391878,,,,,,,,,,,,,,
5adef850eb60400001539109,,,,,,,space,0.739,NAN,,NAN,,0.0,86.0,86.0,86.0,1.0,87.0,Taylor,Acc,Participant_Images/5adef850eb60400001539109/5adef850eb60400001539109_Images/5adef850eb60400001539109_Image_9.jpeg,did not like,3.799433026,,,,,,,,,,,,,,
5adef850eb60400001539109,,,,,,,space,0.5379,NAN,,NAN,,0.0,87.0,87.0,87.0,1.0,88.0,Taylor,Acc,Participant_Images/5adef850eb60400001539109/5adef850eb60400001539109_Images/5adef850eb60400001539109_Image_3.jpeg,liked,5.246980764,,,,,,,,,,,,,,
5adef850eb60400001539109,,,,,,,space,0.5693,NAN,,NAN,,0.0,88.0,88.0,88.0,1.0,89.0,Taylor,Acc,Participant_Images/5adef850eb60400001539109/5adef850eb60400001539109_Images/5adef850eb60400001539109_Image_10.jpeg,liked,3.30081769,,,,,,,,,,,,,,
5adef850eb60400001539109,,,,,,,,,,,,,,,,,,,,,,,,s,1.0,space,0.6257,0.0,0.0,0.0,0.0,1.0,0.8327,h,0.6267,,
5adef850eb60400001539109,,,,,,,,,3,,3,,0.0,89.0,89.0,89.0,1.0,90.0,Taylor,Acc,Participant_Images/5adef850eb60400001539109/5adef850eb60400001539109_Images/5adef850eb60400001539109_Image_17.jpeg,liked,1.661473164,,,,,,,,,,,,,,
5adef850eb60400001539109,,,,,space,0.4836,space,6.417,NAN,,NAN,,0.0,90.0,90.0,90.0,1.0,91.0,Charlie,Rej,Participant_Images/5adef850eb60400001539109/5adef850eb60400001539109_Images/5adef850eb60400001539109_Image_17.jpeg,liked,3.613205605,,,,,,,,,,,,,,
5adef850eb60400001539109,,,,,,,space,0.8868,NAN,,NAN,,0.0,91.0,91.0,91.0,1.0,92.0,Charlie,Rej,Participant_Images/5adef850eb60400001539109/5adef850eb60400001539109_Images/5adef850eb60400001539109_Image_13.jpeg,did not like,4.988446431,,,,,,,,,,,,,,
5adef850eb60400001539109,,,,,,,space,0.5137,NAN,,NAN,,0.0,92.0,92.0,92.0,1.0,93.0,Charlie,Rej,Participant_Images/5adef850eb60400001539109/5adef850eb60400001539109_Images/5adef850eb60400001539109_Image_18.jpeg,liked,3.470791822,,,,,,,,,,,,,,
5adef850eb60400001539109,,,,,,,space,0.5338,NAN,,NAN,,0.0,93.0,93.0,93.0,1.0,94.0,Charlie,Rej,Participant_Images/5adef850eb60400001539109/5adef850eb60400001539109_Images/5adef850eb60400001539109_Image_5.jpeg,did not like,3.820572462,,,,,,,,,,,,,,
5adef850eb60400001539109,,,,,,,,,,,,,,,,,,,,,,,,s,1.0,space,0.5738,0.0,0.0,0.0,0.0,1.0,0.8935,h,2.5202,,
5adef850eb60400001539109,,,,,,,,,NAN,,NAN,,0.0,94.0,94.0,94.0,1.0,95.0,Charlie,Rej,Participant_Images/5adef850eb60400001539109/5adef850eb60400001539109_Images/5adef850eb60400001539109_Image_19.jpeg,liked,2.455989137,,,,,,,,,,,,,,
5adef850eb60400001539109,,,,,,,space,0.6693,NAN,,NAN,,0.0,95.0,95.0,95.0,1.0,96.0,Charlie,Rej,Participant_Images/5adef850eb60400001539109/5adef850eb60400001539109_Images/5adef850eb60400001539109_Image_6.jpeg,did not like,3.79605092,,,,,,,,,,,,,,
5adef850eb60400001539109,,,,,,,space,0.55,NAN,,NAN,,0.0,96.0,96.0,96.0,1.0,97.0,Charlie,Rej,Participant_Images/5adef850eb60400001539109/5adef850eb60400001539109_Images/5adef850eb60400001539109_Image_25.jpeg,did not like,3.562416326,,,,,,,,,,,,,,
5adef850eb60400001539109,,,,,,,space,0.4344,NAN,,NAN,,0.0,97.0,97.0,97.0,1.0,98.0,Charlie,Rej,Participant_Images/5adef850eb60400001539109/5adef850eb60400001539109_Images/5adef850eb60400001539109_Image_7.jpeg,did not like,2.843822497,,,,,,,,,,,,,,
5adef850eb60400001539109,,,,,,,space,0.5213,NAN,,NAN,,0.0,98.0,98.0,98.0,1.0,99.0,Charlie,Rej,Participant_Images/5adef850eb60400001539109/5adef850eb60400001539109_Images/5adef850eb60400001539109_Image_2.jpeg,did not like,3.546495948,,,,,,,,,,,,,,
5adef850eb60400001539109,,,,,,,,,,,,,,,,,,,,,,,,s,1.0,space,0.8051,0.0,0.0,0.0,0.0,1.0,0.8373,h,0.5325,,
5adef850eb60400001539109,,,,,,,,,NAN,,NAN,,0.0,99.0,99.0,99.0,1.0,100.0,Charlie,Rej,Participant_Images/5adef850eb60400001539109/5adef850eb60400001539109_Images/5adef850eb60400001539109_Image_3.jpeg,liked,1.672012706,,,,,,,,,,,,,,
5adef850eb60400001539109,,,,,,,space,0.9734,NAN,,NAN,,0.0,100.0,100.0,100.0,1.0,101.0,Charlie,Rej,Participant_Images/5adef850eb60400001539109/5adef850eb60400001539109_Images/5adef850eb60400001539109_Image_20.jpeg,liked,4.942172136,,,,,,,,,,,,,,
5adef850eb60400001539109,,,,,,,space,1.0837,NAN,,NAN,,0.0,101.0,101.0,101.0,1.0,102.0,Charlie,Rej,Participant_Images/5adef850eb60400001539109/5adef850eb60400001539109_Images/5adef850eb60400001539109_Image_27.jpeg,did not like,2.50187214,,,,,,,,,,,,,,
5adef850eb60400001539109,,,,,,,space,1.0206,NAN,,NAN,,0.0,102.0,102.0,102.0,1.0,103.0,Charlie,Rej,Participant_Images/5adef850eb60400001539109/5adef850eb60400001539109_Images/5adef850eb60400001539109_Image_1.jpeg,did not like,2.071164779,,,,,,,,,,,,,,
5adef850eb60400001539109,,,,,,,space,0.9738,NAN,,NAN,,0.0,103.0,103.0,103.0,1.0,104.0,Charlie,Rej,Participant_Images/5adef850eb60400001539109/5adef850eb60400001539109_Images/5adef850eb60400001539109_Image_24.jpeg,did not like,5.336503566,,,,,,,,,,,,,,
5adef850eb60400001539109,,,,,,,,,,,,,,,,,,,,,,,,s,1.0,space,0.7037,0.0,0.0,0.0,0.0,1.0,1.3691,h,0.5892,,
5adef850eb60400001539109,,,,,,,,,NAN,,NAN,,0.0,104.0,104.0,104.0,1.0,105.0,Charlie,Rej,Participant_Images/5adef850eb60400001539109/5adef850eb60400001539109_Images/5adef850eb60400001539109_Image_4.jpeg,liked,2.642157193,,,,,,,,,,,,,,
5adef850eb60400001539109,,,,,,,space,0.9636,NAN,,NAN,,0.0,105.0,105.0,105.0,1.0,106.0,Charlie,Rej,Participant_Images/5adef850eb60400001539109/5adef850eb60400001539109_Images/5adef850eb60400001539109_Image_10.jpeg,did not like,4.456234322,,,,,,,,,,,,,,
5adef850eb60400001539109,,,,,,,space,0.883,NAN,,NAN,,0.0,106.0,106.0,106.0,1.0,107.0,Charlie,Rej,Participant_Images/5adef850eb60400001539109/5adef850eb60400001539109_Images/5adef850eb60400001539109_Image_9.jpeg,did not like,4.438512181,,,,,,,,,,,,,,
5adef850eb60400001539109,,,,,,,space,2.5543,NAN,,NAN,,0.0,107.0,107.0,107.0,1.0,108.0,Charlie,Rej,Participant_Images/5adef850eb60400001539109/5adef850eb60400001539109_Images/5adef850eb60400001539109_Image_12.jpeg,did not like,2.682944783,,,,,,,,,,,,,,
5adef850eb60400001539109,,,,,,,space,0.8683,NAN,,NAN,,0.0,108.0,108.0,108.0,1.0,109.0,Charlie,Rej,Participant_Images/5adef850eb60400001539109/5adef850eb60400001539109_Images/5adef850eb60400001539109_Image_30.jpeg,did not like,4.51984296,,,,,,,,,,,,,,
5adef850eb60400001539109,,,,,,,,,,,,,,,,,,,,,,,,s,1.0,space,1.2226,0.0,0.0,0.0,0.0,1.0,0.9985,h,2.9675,,
5adef850eb60400001539109,,,,,,,,,NAN,,NAN,,0.0,109.0,109.0,109.0,1.0,110.0,Charlie,Rej,Participant_Images/5adef850eb60400001539109/5adef850eb60400001539109_Images/5adef850eb60400001539109_Image_29.jpeg,did not like,3.195382774,,,,,,,,,,,,,,
5adef850eb60400001539109,,,,,,,space,1.0795,NAN,,NAN,,0.0,110.0,110.0,110.0,1.0,111.0,Charlie,Rej,Participant_Images/5adef850eb60400001539109/5adef850eb60400001539109_Images/5adef850eb60400001539109_Image_15.jpeg,did not like,1.779333479,,,,,,,,,,,,,,
5adef850eb60400001539109,,,,,,,space,0.7003,NAN,,NAN,,0.0,111.0,111.0,111.0,1.0,112.0,Charlie,Rej,Participant_Images/5adef850eb60400001539109/5adef850eb60400001539109_Images/5adef850eb60400001539109_Image_14.jpeg,liked,4.312468682,,,,,,,,,,,,,,
5adef850eb60400001539109,,,,,,,space,0.7209,NAN,,NAN,,0.0,112.0,112.0,112.0,1.0,113.0,Charlie,Rej,Participant_Images/5adef850eb60400001539109/5adef850eb60400001539109_Images/5adef850eb60400001539109_Image_11.jpeg,did not like,4.940433059,,,,,,,,,,,,,,
5adef850eb60400001539109,,,,,,,space,0.7363,NAN,,NAN,,0.0,113.0,113.0,113.0,1.0,114.0,Charlie,Rej,Participant_Images/5adef850eb60400001539109/5adef850eb60400001539109_Images/5adef850eb60400001539109_Image_16.jpeg,did not like,2.7105123,,,,,,,,,,,,,,
5adef850eb60400001539109,,,,,,,,,,,,,,,,,,,,,,,,s,1.0,space,0.7358,0.0,0.0,0.0,0.0,1.0,1.903,h,2.5091,,
5adef850eb60400001539109,,,,,,,,,NAN,,NAN,,0.0,114.0,114.0,114.0,1.0,115.0,Charlie,Rej,Participant_Images/5adef850eb60400001539109/5adef850eb60400001539109_Images/5adef850eb60400001539109_Image_22.jpeg,did not like,3.602308302,,,,,,,,,,,,,,
5adef850eb60400001539109,,,,,,,space,1.4003,NAN,,NAN,,0.0,115.0,115.0,115.0,1.0,116.0,Charlie,Rej,Participant_Images/5adef850eb60400001539109/5adef850eb60400001539109_Images/5adef850eb60400001539109_Image_26.jpeg,did not like,4.106391878,,,,,,,,,,,,,,
5adef850eb60400001539109,,,,,,,space,1.5875,NAN,,NAN,,0.0,116.0,116.0,116.0,1.0,117.0,Charlie,Rej,Participant_Images/5adef850eb60400001539109/5adef850eb60400001539109_Images/5adef850eb60400001539109_Image_8.jpeg,did not like,3.799433026,,,,,,,,,,,,,,
5adef850eb60400001539109,,,,,,,space,2.6046,NAN,,NAN,,0.0,117.0,117.0,117.0,1.0,118.0,Charlie,Rej,Participant_Images/5adef850eb60400001539109/5adef850eb60400001539109_Images/5adef850eb60400001539109_Image_28.jpeg,did not like,5.246980764,,,,,,,,,,,,,,
5adef850eb60400001539109,,,,,,,space,2.0377,NAN,,NAN,,0.0,118.0,118.0,118.0,1.0,119.0,Charlie,Rej,Participant_Images/5adef850eb60400001539109/5adef850eb60400001539109_Images/5adef850eb60400001539109_Image_21.jpeg,liked,3.30081769,,,,,,,,,,,,,,
5adef850eb60400001539109,,,,,,,,,,,,,,,,,,,,,,,,s,1.0,space,0.5736,0.0,0.0,0.0,0.0,1.0,1.9162,h,0.6401,,
5adef850eb60400001539109,,,,,,,,,3,,2,,0.0,119.0,119.0,119.0,1.0,120.0,Charlie,Rej,Participant_Images/5adef850eb60400001539109/5adef850eb60400001539109_Images/5adef850eb60400001539109_Image_23.jpeg,liked,1.661473164,,,,,,,,,,,,,,
5adef850eb60400001539109,,,,,space,1.0633,space,0.8011,NAN,,NAN,,0.0,120.0,120.0,120.0,1.0,121.0,Sam,Rej,Participant_Images/5adef850eb60400001539109/5adef850eb60400001539109_Images/5adef850eb60400001539109_Image_16.jpeg,did not like,3.613205605,,,,,,,,,,,,,,
5adef850eb60400001539109,,,,,,,space,0.7037,NAN,,NAN,,0.0,121.0,121.0,121.0,1.0,122.0,Sam,Rej,Participant_Images/5adef850eb60400001539109/5adef850eb60400001539109_Images/5adef850eb60400001539109_Image_4.jpeg,did not like,4.988446431,,,,,,,,,,,,,,
5adef850eb60400001539109,,,,,,,space,0.5714,NAN,,NAN,,0.0,122.0,122.0,122.0,1.0,123.0,Sam,Rej,Participant_Images/5adef850eb60400001539109/5adef850eb60400001539109_Images/5adef850eb60400001539109_Image_21.jpeg,liked,3.470791822,,,,,,,,,,,,,,
5adef850eb60400001539109,,,,,,,space,0.7052,NAN,,NAN,,0.0,123.0,123.0,123.0,1.0,124.0,Sam,Rej,Participant_Images/5adef850eb60400001539109/5adef850eb60400001539109_Images/5adef850eb60400001539109_Image_26.jpeg,did not like,3.820572462,,,,,,,,,,,,,,
5adef850eb60400001539109,,,,,,,,,,,,,,,,,,,,,,,,s,1.0,space,1.1343,0.0,0.0,0.0,0.0,1.0,1.905,h,0.3678,,
5adef850eb60400001539109,,,,,,,,,NAN,,NAN,,0.0,124.0,124.0,124.0,1.0,125.0,Sam,Rej,Participant_Images/5adef850eb60400001539109/5adef850eb60400001539109_Images/5adef850eb60400001539109_Image_6.jpeg,did not like,2.455989137,,,,,,,,,,,,,,
5adef850eb60400001539109,,,,,,,space,0.4823,NAN,,NAN,,0.0,125.0,125.0,125.0,1.0,126.0,Sam,Rej,Participant_Images/5adef850eb60400001539109/5adef850eb60400001539109_Images/5adef850eb60400001539109_Image_24.jpeg,did not like,3.79605092,,,,,,,,,,,,,,
5adef850eb60400001539109,,,,,,,space,0.7186,NAN,,NAN,,0.0,126.0,126.0,126.0,1.0,127.0,Sam,Rej,Participant_Images/5adef850eb60400001539109/5adef850eb60400001539109_Images/5adef850eb60400001539109_Image_27.jpeg,did not like,3.562416326,,,,,,,,,,,,,,
5adef850eb60400001539109,,,,,,,space,0.9386,NAN,,NAN,,0.0,127.0,127.0,127.0,1.0,128.0,Sam,Rej,Participant_Images/5adef850eb60400001539109/5adef850eb60400001539109_Images/5adef850eb60400001539109_Image_14.jpeg,did not like,2.843822497,,,,,,,,,,,,,,
5adef850eb60400001539109,,,,,,,space,1.8293,NAN,,NAN,,0.0,128.0,128.0,128.0,1.0,129.0,Sam,Rej,Participant_Images/5adef850eb60400001539109/5adef850eb60400001539109_Images/5adef850eb60400001539109_Image_23.jpeg,did not like,3.546495948,,,,,,,,,,,,,,
5adef850eb60400001539109,,,,,,,,,,,,,,,,,,,,,,,,,999.0,space,2.3865,0.0,0.0,0.0,0.0,1.0,,,,,
5adef850eb60400001539109,,,,,,,,,NAN,,NAN,,0.0,129.0,129.0,129.0,1.0,130.0,Sam,Rej,Participant_Images/5adef850eb60400001539109/5adef850eb60400001539109_Images/5adef850eb60400001539109_Image_25.jpeg,did not like,1.672012706,,,,,,,,,,,,,,
5adef850eb60400001539109,,,,,,,space,7.789,NAN,,NAN,,0.0,130.0,130.0,130.0,1.0,131.0,Sam,Rej,Participant_Images/5adef850eb60400001539109/5adef850eb60400001539109_Images/5adef850eb60400001539109_Image_11.jpeg,did not like,4.942172136,,,,,,,,,,,,,,
5adef850eb60400001539109,,,,,,,space,1.4965,NAN,,NAN,,0.0,131.0,131.0,131.0,1.0,132.0,Sam,Rej,Participant_Images/5adef850eb60400001539109/5adef850eb60400001539109_Images/5adef850eb60400001539109_Image_15.jpeg,did not like,2.50187214,,,,,,,,,,,,,,
5adef850eb60400001539109,,,,,,,space,0.504,NAN,,NAN,,0.0,132.0,132.0,132.0,1.0,133.0,Sam,Rej,Participant_Images/5adef850eb60400001539109/5adef850eb60400001539109_Images/5adef850eb60400001539109_Image_12.jpeg,liked,2.071164779,,,,,,,,,,,,,,
5adef850eb60400001539109,,,,,,,space,0.5534,NAN,,NAN,,0.0,133.0,133.0,133.0,1.0,134.0,Sam,Rej,Participant_Images/5adef850eb60400001539109/5adef850eb60400001539109_Images/5adef850eb60400001539109_Image_28.jpeg,did not like,5.336503566,,,,,,,,,,,,,,
5adef850eb60400001539109,,,,,,,,,,,,,,,,,,,,,,,,s,1.0,space,4.9333,0.0,0.0,0.0,0.0,1.0,1.4738,h,1.7836,,
5adef850eb60400001539109,,,,,,,,,NAN,,NAN,,0.0,134.0,134.0,134.0,1.0,135.0,Sam,Rej,Participant_Images/5adef850eb60400001539109/5adef850eb60400001539109_Images/5adef850eb60400001539109_Image_22.jpeg,did not like,2.642157193,,,,,,,,,,,,,,
5adef850eb60400001539109,,,,,,,space,3.3218,NAN,,NAN,,0.0,135.0,135.0,135.0,1.0,136.0,Sam,Rej,Participant_Images/5adef850eb60400001539109/5adef850eb60400001539109_Images/5adef850eb60400001539109_Image_13.jpeg,liked,4.456234322,,,,,,,,,,,,,,
5adef850eb60400001539109,,,,,,,space,2.1256,NAN,,NAN,,0.0,136.0,136.0,136.0,1.0,137.0,Sam,Rej,Participant_Images/5adef850eb60400001539109/5adef850eb60400001539109_Images/5adef850eb60400001539109_Image_18.jpeg,did not like,4.438512181,,,,,,,,,,,,,,
5adef850eb60400001539109,,,,,,,space,1.4304,NAN,,NAN,,0.0,137.0,137.0,137.0,1.0,138.0,Sam,Rej,Participant_Images/5adef850eb60400001539109/5adef850eb60400001539109_Images/5adef850eb60400001539109_Image_30.jpeg,liked,2.682944783,,,,,,,,,,,,,,
5adef850eb60400001539109,,,,,,,space,3.7245,NAN,,NAN,,0.0,138.0,138.0,138.0,1.0,139.0,Sam,Rej,Participant_Images/5adef850eb60400001539109/5adef850eb60400001539109_Images/5adef850eb60400001539109_Image_8.jpeg,did not like,4.51984296,,,,,,,,,,,,,,
5adef850eb60400001539109,,,,,,,,,,,,,,,,,,,,,,,,s,1.0,space,0.4945,0.0,0.0,0.0,0.0,1.0,0.8198,,,,
5adef850eb60400001539109,,,,,,,,,NAN,,NAN,,0.0,139.0,139.0,139.0,1.0,140.0,Sam,Rej,Participant_Images/5adef850eb60400001539109/5adef850eb60400001539109_Images/5adef850eb60400001539109_Image_1.jpeg,did not like,3.195382774,,,,,,,,,,,,,,
5adef850eb60400001539109,,,,,,,space,3.0373,NAN,,NAN,,0.0,140.0,140.0,140.0,1.0,141.0,Sam,Rej,Participant_Images/5adef850eb60400001539109/5adef850eb60400001539109_Images/5adef850eb60400001539109_Image_7.jpeg,did not like,1.779333479,,,,,,,,,,,,,,
5adef850eb60400001539109,,,,,,,space,2.1836,NAN,,NAN,,0.0,141.0,141.0,141.0,1.0,142.0,Sam,Rej,Participant_Images/5adef850eb60400001539109/5adef850eb60400001539109_Images/5adef850eb60400001539109_Image_2.jpeg,liked,4.312468682,,,,,,,,,,,,,,
5adef850eb60400001539109,,,,,,,space,3.0707,NAN,,NAN,,0.0,142.0,142.0,142.0,1.0,143.0,Sam,Rej,Participant_Images/5adef850eb60400001539109/5adef850eb60400001539109_Images/5adef850eb60400001539109_Image_3.jpeg,liked,4.940433059,,,,,,,,,,,,,,
5adef850eb60400001539109,,,,,,,space,1.2869,NAN,,NAN,,0.0,143.0,143.0,143.0,1.0,144.0,Sam,Rej,Participant_Images/5adef850eb60400001539109/5adef850eb60400001539109_Images/5adef850eb60400001539109_Image_5.jpeg,liked,2.7105123,,,,,,,,,,,,,,
5adef850eb60400001539109,,,,,,,,,,,,,,,,,,,,,,,,s,1.0,space,6.7624,0.0,0.0,0.0,0.0,1.0,1.867,,,,
5adef850eb60400001539109,,,,,,,,,NAN,,NAN,,0.0,144.0,144.0,144.0,1.0,145.0,Sam,Rej,Participant_Images/5adef850eb60400001539109/5adef850eb60400001539109_Images/5adef850eb60400001539109_Image_10.jpeg,liked,3.602308302,,,,,,,,,,,,,,
5adef850eb60400001539109,,,,,,,space,2.5324,NAN,,NAN,,0.0,145.0,145.0,145.0,1.0,146.0,Sam,Rej,Participant_Images/5adef850eb60400001539109/5adef850eb60400001539109_Images/5adef850eb60400001539109_Image_19.jpeg,did not like,4.106391878,,,,,,,,,,,,,,
5adef850eb60400001539109,,,,,,,space,2.3391,NAN,,NAN,,0.0,146.0,146.0,146.0,1.0,147.0,Sam,Rej,Participant_Images/5adef850eb60400001539109/5adef850eb60400001539109_Images/5adef850eb60400001539109_Image_9.jpeg,liked,3.799433026,,,,,,,,,,,,,,
5adef850eb60400001539109,,,,,,,space,1.8638,NAN,,NAN,,0.0,147.0,147.0,147.0,1.0,148.0,Sam,Rej,Participant_Images/5adef850eb60400001539109/5adef850eb60400001539109_Images/5adef850eb60400001539109_Image_29.jpeg,did not like,5.246980764,,,,,,,,,,,,,,
5adef850eb60400001539109,,,,,,,space,4.4116,NAN,,NAN,,0.0,148.0,148.0,148.0,1.0,149.0,Sam,Rej,Participant_Images/5adef850eb60400001539109/5adef850eb60400001539109_Images/5adef850eb60400001539109_Image_20.jpeg,did not like,3.30081769,,,,,,,,,,,,,,
5adef850eb60400001539109,,,,,,,,,,,,,,,,,,,,,,,,s,1.0,space,5.1036,0.0,0.0,0.0,0.0,1.0,2.1534,h,1.1981,,
5adef850eb60400001539109,,,,,,,,,3,,2,,0.0,149.0,149.0,149.0,1.0,150.0,Sam,Rej,Participant_Images/5adef850eb60400001539109/5adef850eb60400001539109_Images/5adef850eb60400001539109_Image_17.jpeg,did not like,1.661473164,,,,,,,,,,,,,,
5adef850eb60400001539109,,,,,,,,,,,,,,,,,,,,,,,,,,,,,,,,,,,,space,2.4198
