PROLIFIC_ID,endwelcomescreen_keys.keys,endwelcomescreen_keys.rt,endinstructionscreen_keys.keys,endinstructionscreen_keys.rt,endpartnermatch_keys.keys,endpartnermatch_keys.rt,sharenextphoto_key.keys,sharenextphoto_key.rt,salience_rating,key_resp.keys,stress_level,stresslevel_keypress.keys,entiretaskloop.thisRepN,entiretaskloop.thisTrialN,entiretaskloop.thisN,entiretaskloop.thisIndex,entiretaskloop.ran,TrialNumber,Partner,Condition,Photos,Feedback,FeedbackWait,choice_keys.keys,playlottery,resumeafterlottery_keys.keys,resumeafterlottery_keys.rt,lotteryloop.thisRepN,lotteryloop.thisTrialN,lotteryloop.thisN,lotteryloop.thisIndex,lotteryloop.ran,choice_keys.rt,lotteryguess_keys.keys,lotteryguess_keys.rt,end_screen_keys.keys,end_screen_keys.rt
5aec7e89ae13140001fc0cdf,space,14.243,,,,,,,,,,,,,,,,,,,,,,,,,,,,,,,,,,,
,,,,,,,,,,,,,,,,,,,,,,,,,,,,,,,,,,,,,
,,,space,7.5201,,,,,,,,,,,,,,,,,,,,,,,,,,,,,,,,,
,,,,,space,17.3091,space,1.1654,NAN,,NAN,,0,0,0,0,1,1,Alex,Acc,Participant_Images/5aec7e89ae13140001fc0cdf/5aec7e89ae13140001fc0cdf_Images/5aec7e89ae13140001fc0cdf_Image_14.jpeg,liked,3.613205605,,,,,,,,,,,,,,
,,,,,,,space,0.3061,NAN,,NAN,,0,1,1,1,1,2,Alex,Acc,Participant_Images/5aec7e89ae13140001fc0cdf/5aec7e89ae13140001fc0cdf_Images/5aec7e89ae13140001fc0cdf_Image_12.jpeg,liked,4.988446431,,,,,,,,,,,,,,
,,,,,,,space,0.2398,NAN,,NAN,,0,2,2,2,1,3,Alex,Acc,Participant_Images/5aec7e89ae13140001fc0cdf/5aec7e89ae13140001fc0cdf_Images/5aec7e89ae13140001fc0cdf_Image_6.jpeg,liked,3.470791822,,,,,,,,,,,,,,
,,,,,,,space,0.406,NAN,,NAN,,0,3,3,3,1,4,Alex,Acc,Participant_Images/5aec7e89ae13140001fc0cdf/5aec7e89ae13140001fc0cdf_Images/5aec7e89ae13140001fc0cdf_Image_9.jpeg,did not like,3.820572462,,,,,,,,,,,,,,
,,,,,,,,,,,,,,,,,,,,,,,,,999,space,2.9511,0,0,0,0,1,,,,,
,,,,,,,,,NAN,,NAN,,0,4,4,4,1,5,Alex,Acc,Participant_Images/5aec7e89ae13140001fc0cdf/5aec7e89ae13140001fc0cdf_Images/5aec7e89ae13140001fc0cdf_Image_8.jpeg,liked,2.455989137,,,,,,,,,,,,,,
,,,,,,,space,0.6717,NAN,,NAN,,0,5,5,5,1,6,Alex,Acc,Participant_Images/5aec7e89ae13140001fc0cdf/5aec7e89ae13140001fc0cdf_Images/5aec7e89ae13140001fc0cdf_Image_18.jpeg,liked,3.79605092,,,,,,,,,,,,,,
,,,,,,,space,0.6546,NAN,,NAN,,0,6,6,6,1,7,Alex,Acc,Participant_Images/5aec7e89ae13140001fc0cdf/5aec7e89ae13140001fc0cdf_Images/5aec7e89ae13140001fc0cdf_Image_21.jpeg,liked,3.562416326,,,,,,,,,,,,,,
,,,,,,,space,0.6258,NAN,,NAN,,0,7,7,7,1,8,Alex,Acc,Participant_Images/5aec7e89ae13140001fc0cdf/5aec7e89ae13140001fc0cdf_Images/5aec7e89ae13140001fc0cdf_Image_13.jpeg,did not like,2.843822497,,,,,,,,,,,,,,
,,,,,,,space,0.4893,NAN,,NAN,,0,8,8,8,1,9,Alex,Acc,Participant_Images/5aec7e89ae13140001fc0cdf/5aec7e89ae13140001fc0cdf_Images/5aec7e89ae13140001fc0cdf_Image_22.jpeg,liked,3.546495948,,,,,,,,,,,,,,
,,,,,,,,,,,,,,,,,,,,,,,,s,1,space,0.7872,0,0,0,0,1,3.1638,,,,
,,,,,,,,,NAN,,NAN,,0,9,9,9,1,10,Alex,Acc,Participant_Images/5aec7e89ae13140001fc0cdf/5aec7e89ae13140001fc0cdf_Images/5aec7e89ae13140001fc0cdf_Image_3.jpeg,liked,1.672012706,,,,,,,,,,,,,,
,,,,,,,space,0.3394,NAN,,NAN,,0,10,10,10,1,11,Alex,Acc,Participant_Images/5aec7e89ae13140001fc0cdf/5aec7e89ae13140001fc0cdf_Images/5aec7e89ae13140001fc0cdf_Image_26.jpeg,liked,4.942172136,,,,,,,,,,,,,,
,,,,,,,space,0.257,NAN,,NAN,,0,11,11,11,1,12,Alex,Acc,Participant_Images/5aec7e89ae13140001fc0cdf/5aec7e89ae13140001fc0cdf_Images/5aec7e89ae13140001fc0cdf_Image_11.jpeg,liked,2.50187214,,,,,,,,,,,,,,
,,,,,,,space,0.5056,NAN,,NAN,,0,12,12,12,1,13,Alex,Acc,Participant_Images/5aec7e89ae13140001fc0cdf/5aec7e89ae13140001fc0cdf_Images/5aec7e89ae13140001fc0cdf_Image_17.jpeg,did not like,2.071164779,,,,,,,,,,,,,,
,,,,,,,space,0.5587,NAN,,NAN,,0,13,13,13,1,14,Alex,Acc,Participant_Images/5aec7e89ae13140001fc0cdf/5aec7e89ae13140001fc0cdf_Images/5aec7e89ae13140001fc0cdf_Image_30.jpeg,liked,5.336503566,,,,,,,,,,,,,,
,,,,,,,,,,,,,,,,,,,,,,,,c,0,space,0.6858,0,0,0,0,1,0.6157,,,,
,,,,,,,,,NAN,,NAN,,0,14,14,14,1,15,Alex,Acc,Participant_Images/5aec7e89ae13140001fc0cdf/5aec7e89ae13140001fc0cdf_Images/5aec7e89ae13140001fc0cdf_Image_23.jpeg,liked,2.642157193,,,,,,,,,,,,,,
,,,,,,,space,0.5041,NAN,,NAN,,0,15,15,15,1,16,Alex,Acc,Participant_Images/5aec7e89ae13140001fc0cdf/5aec7e89ae13140001fc0cdf_Images/5aec7e89ae13140001fc0cdf_Image_25.jpeg,did not like,4.456234322,,,,,,,,,,,,,,
,,,,,,,space,0.4231,NAN,,NAN,,0,16,16,16,1,17,Alex,Acc,Participant_Images/5aec7e89ae13140001fc0cdf/5aec7e89ae13140001fc0cdf_Images/5aec7e89ae13140001fc0cdf_Image_4.jpeg,did not like,4.438512181,,,,,,,,,,,,,,
,,,,,,,space,0.4904,NAN,,NAN,,0,17,17,17,1,18,Alex,Acc,Participant_Images/5aec7e89ae13140001fc0cdf/5aec7e89ae13140001fc0cdf_Images/5aec7e89ae13140001fc0cdf_Image_20.jpeg,liked,2.682944783,,,,,,,,,,,,,,
,,,,,,,space,0.4401,NAN,,NAN,,0,18,18,18,1,19,Alex,Acc,Participant_Images/5aec7e89ae13140001fc0cdf/5aec7e89ae13140001fc0cdf_Images/5aec7e89ae13140001fc0cdf_Image_24.jpeg,liked,4.51984296,,,,,,,,,,,,,,
,,,,,,,,,,,,,,,,,,,,,,,,s,1,space,0.6009,0,0,0,0,1,0.7048,l,0.472,,
,,,,,,,,,NAN,,NAN,,0,19,19,19,1,20,Alex,Acc,Participant_Images/5aec7e89ae13140001fc0cdf/5aec7e89ae13140001fc0cdf_Images/5aec7e89ae13140001fc0cdf_Image_7.jpeg,did not like,3.195382774,,,,,,,,,,,,,,
,,,,,,,space,0.323,NAN,,NAN,,0,20,20,20,1,21,Alex,Acc,Participant_Images/5aec7e89ae13140001fc0cdf/5aec7e89ae13140001fc0cdf_Images/5aec7e89ae13140001fc0cdf_Image_29.jpeg,did not like,1.779333479,,,,,,,,,,,,,,
,,,,,,,space,0.4266,NAN,,NAN,,0,21,21,21,1,22,Alex,Acc,Participant_Images/5aec7e89ae13140001fc0cdf/5aec7e89ae13140001fc0cdf_Images/5aec7e89ae13140001fc0cdf_Image_1.jpeg,did not like,4.312468682,,,,,,,,,,,,,,
,,,,,,,space,0.3917,NAN,,NAN,,0,22,22,22,1,23,Alex,Acc,Participant_Images/5aec7e89ae13140001fc0cdf/5aec7e89ae13140001fc0cdf_Images/5aec7e89ae13140001fc0cdf_Image_10.jpeg,liked,4.940433059,,,,,,,,,,,,,,
,,,,,,,space,0.5244,NAN,,NAN,,0,23,23,23,1,24,Alex,Acc,Participant_Images/5aec7e89ae13140001fc0cdf/5aec7e89ae13140001fc0cdf_Images/5aec7e89ae13140001fc0cdf_Image_19.jpeg,did not like,2.7105123,,,,,,,,,,,,,,
,,,,,,,,,,,,,,,,,,,,,,,,c,0,space,1.6404,0,0,0,0,1,0.9044,,,,
,,,,,,,,,NAN,,NAN,,0,24,24,24,1,25,Alex,Acc,Participant_Images/5aec7e89ae13140001fc0cdf/5aec7e89ae13140001fc0cdf_Images/5aec7e89ae13140001fc0cdf_Image_28.jpeg,liked,3.602308302,,,,,,,,,,,,,,
,,,,,,,space,0.4876,NAN,,NAN,,0,25,25,25,1,26,Alex,Acc,Participant_Images/5aec7e89ae13140001fc0cdf/5aec7e89ae13140001fc0cdf_Images/5aec7e89ae13140001fc0cdf_Image_27.jpeg,liked,4.106391878,,,,,,,,,,,,,,
,,,,,,,space,0.4874,NAN,,NAN,,0,26,26,26,1,27,Alex,Acc,Participant_Images/5aec7e89ae13140001fc0cdf/5aec7e89ae13140001fc0cdf_Images/5aec7e89ae13140001fc0cdf_Image_2.jpeg,liked,3.799433026,,,,,,,,,,,,,,
,,,,,,,space,0.3395,NAN,,NAN,,0,27,27,27,1,28,Alex,Acc,Participant_Images/5aec7e89ae13140001fc0cdf/5aec7e89ae13140001fc0cdf_Images/5aec7e89ae13140001fc0cdf_Image_15.jpeg,liked,5.246980764,,,,,,,,,,,,,,
,,,,,,,space,1.2465,NAN,,NAN,,0,28,28,28,1,29,Alex,Acc,Participant_Images/5aec7e89ae13140001fc0cdf/5aec7e89ae13140001fc0cdf_Images/5aec7e89ae13140001fc0cdf_Image_5.jpeg,liked,3.30081769,,,,,,,,,,,,,,
,,,,,,,,,,,,,,,,,,,,,,,,s,1,space,2.5133,0,0,0,0,1,1.1553,h,0.5881,,
,,,,,,,,,4,,7,,0,29,29,29,1,30,Alex,Acc,Participant_Images/5aec7e89ae13140001fc0cdf/5aec7e89ae13140001fc0cdf_Images/5aec7e89ae13140001fc0cdf_Image_16.jpeg,liked,1.661473164,,,,,,,,,,,,,,
,,,,,space,2.9231,space,0.339,NAN,,NAN,,0,30,30,30,1,31,Charlie,Rej,Participant_Images/5aec7e89ae13140001fc0cdf/5aec7e89ae13140001fc0cdf_Images/5aec7e89ae13140001fc0cdf_Image_18.jpeg,liked,3.613205605,,,,,,,,,,,,,,
,,,,,,,space,0.8109,NAN,,NAN,,0,31,31,31,1,32,Charlie,Rej,Participant_Images/5aec7e89ae13140001fc0cdf/5aec7e89ae13140001fc0cdf_Images/5aec7e89ae13140001fc0cdf_Image_12.jpeg,did not like,4.988446431,,,,,,,,,,,,,,
,,,,,,,space,0.4896,NAN,,NAN,,0,32,32,32,1,33,Charlie,Rej,Participant_Images/5aec7e89ae13140001fc0cdf/5aec7e89ae13140001fc0cdf_Images/5aec7e89ae13140001fc0cdf_Image_30.jpeg,did not like,3.470791822,,,,,,,,,,,,,,
,,,,,,,space,0.5227,NAN,,NAN,,0,33,33,33,1,34,Charlie,Rej,Participant_Images/5aec7e89ae13140001fc0cdf/5aec7e89ae13140001fc0cdf_Images/5aec7e89ae13140001fc0cdf_Image_21.jpeg,liked,3.820572462,,,,,,,,,,,,,,
,,,,,,,,,,,,,,,,,,,,,,,,s,1,space,1.7506,0,0,0,0,1,1.8431,l,0.3905,,
,,,,,,,,,NAN,,NAN,,0,34,34,34,1,35,Charlie,Rej,Participant_Images/5aec7e89ae13140001fc0cdf/5aec7e89ae13140001fc0cdf_Images/5aec7e89ae13140001fc0cdf_Image_1.jpeg,did not like,2.455989137,,,,,,,,,,,,,,
,,,,,,,space,0.4058,NAN,,NAN,,0,35,35,35,1,36,Charlie,Rej,Participant_Images/5aec7e89ae13140001fc0cdf/5aec7e89ae13140001fc0cdf_Images/5aec7e89ae13140001fc0cdf_Image_3.jpeg,liked,3.79605092,,,,,,,,,,,,,,
,,,,,,,space,0.3226,NAN,,NAN,,0,36,36,36,1,37,Charlie,Rej,Participant_Images/5aec7e89ae13140001fc0cdf/5aec7e89ae13140001fc0cdf_Images/5aec7e89ae13140001fc0cdf_Image_4.jpeg,did not like,3.562416326,,,,,,,,,,,,,,
,,,,,,,space,0.3232,NAN,,NAN,,0,37,37,37,1,38,Charlie,Rej,Participant_Images/5aec7e89ae13140001fc0cdf/5aec7e89ae13140001fc0cdf_Images/5aec7e89ae13140001fc0cdf_Image_27.jpeg,liked,2.843822497,,,,,,,,,,,,,,
,,,,,,,space,0.4567,NAN,,NAN,,0,38,38,38,1,39,Charlie,Rej,Participant_Images/5aec7e89ae13140001fc0cdf/5aec7e89ae13140001fc0cdf_Images/5aec7e89ae13140001fc0cdf_Image_14.jpeg,did not like,3.546495948,,,,,,,,,,,,,,
,,,,,,,,,,,,,,,,,,,,,,,,c,0,space,1.4393,0,0,0,0,1,0.3011,,,,
,,,,,,,,,NAN,,NAN,,0,39,39,39,1,40,Charlie,Rej,Participant_Images/5aec7e89ae13140001fc0cdf/5aec7e89ae13140001fc0cdf_Images/5aec7e89ae13140001fc0cdf_Image_28.jpeg,did not like,1.672012706,,,,,,,,,,,,,,
,,,,,,,space,0.677,NAN,,NAN,,0,40,40,40,1,41,Charlie,Rej,Participant_Images/5aec7e89ae13140001fc0cdf/5aec7e89ae13140001fc0cdf_Images/5aec7e89ae13140001fc0cdf_Image_20.jpeg,liked,4.942172136,,,,,,,,,,,,,,
,,,,,,,space,2.1876,NAN,,NAN,,0,41,41,41,1,42,Charlie,Rej,Participant_Images/5aec7e89ae13140001fc0cdf/5aec7e89ae13140001fc0cdf_Images/5aec7e89ae13140001fc0cdf_Image_16.jpeg,did not like,2.50187214,,,,,,,,,,,,,,
,,,,,,,space,1.4786,NAN,,NAN,,0,42,42,42,1,43,Charlie,Rej,Participant_Images/5aec7e89ae13140001fc0cdf/5aec7e89ae13140001fc0cdf_Images/5aec7e89ae13140001fc0cdf_Image_26.jpeg,liked,2.071164779,,,,,,,,,,,,,,
,,,,,,,space,1.539,NAN,,NAN,,0,43,43,43,1,44,Charlie,Rej,Participant_Images/5aec7e89ae13140001fc0cdf/5aec7e89ae13140001fc0cdf_Images/5aec7e89ae13140001fc0cdf_Image_11.jpeg,did not like,5.336503566,,,,,,,,,,,,,,
,,,,,,,,,,,,,,,,,,,,,,,,c,0,space,1.0754,0,0,0,0,1,0.4681,,,,
,,,,,,,,,NAN,,NAN,,0,44,44,44,1,45,Charlie,Rej,Participant_Images/5aec7e89ae13140001fc0cdf/5aec7e89ae13140001fc0cdf_Images/5aec7e89ae13140001fc0cdf_Image_15.jpeg,did not like,2.642157193,,,,,,,,,,,,,,
,,,,,,,space,0.5392,NAN,,NAN,,0,45,45,45,1,46,Charlie,Rej,Participant_Images/5aec7e89ae13140001fc0cdf/5aec7e89ae13140001fc0cdf_Images/5aec7e89ae13140001fc0cdf_Image_13.jpeg,did not like,4.456234322,,,,,,,,,,,,,,
,,,,,,,space,1.3044,NAN,,NAN,,0,46,46,46,1,47,Charlie,Rej,Participant_Images/5aec7e89ae13140001fc0cdf/5aec7e89ae13140001fc0cdf_Images/5aec7e89ae13140001fc0cdf_Image_7.jpeg,did not like,4.438512181,,,,,,,,,,,,,,
,,,,,,,space,0.3727,NAN,,NAN,,0,47,47,47,1,48,Charlie,Rej,Participant_Images/5aec7e89ae13140001fc0cdf/5aec7e89ae13140001fc0cdf_Images/5aec7e89ae13140001fc0cdf_Image_9.jpeg,liked,2.682944783,,,,,,,,,,,,,,
,,,,,,,space,0.4378,NAN,,NAN,,0,48,48,48,1,49,Charlie,Rej,Participant_Images/5aec7e89ae13140001fc0cdf/5aec7e89ae13140001fc0cdf_Images/5aec7e89ae13140001fc0cdf_Image_10.jpeg,did not like,4.51984296,,,,,,,,,,,,,,
,,,,,,,,,,,,,,,,,,,,,,,,c,0,space,0.656,0,0,0,0,1,0.4851,,,,
,,,,,,,,,NAN,,NAN,,0,49,49,49,1,50,Charlie,Rej,Participant_Images/5aec7e89ae13140001fc0cdf/5aec7e89ae13140001fc0cdf_Images/5aec7e89ae13140001fc0cdf_Image_29.jpeg,did not like,3.195382774,,,,,,,,,,,,,,
,,,,,,,space,0.4721,NAN,,NAN,,0,50,50,50,1,51,Charlie,Rej,Participant_Images/5aec7e89ae13140001fc0cdf/5aec7e89ae13140001fc0cdf_Images/5aec7e89ae13140001fc0cdf_Image_23.jpeg,liked,1.779333479,,,,,,,,,,,,,,
,,,,,,,space,0.5228,NAN,,NAN,,0,51,51,51,1,52,Charlie,Rej,Participant_Images/5aec7e89ae13140001fc0cdf/5aec7e89ae13140001fc0cdf_Images/5aec7e89ae13140001fc0cdf_Image_6.jpeg,did not like,4.312468682,,,,,,,,,,,,,,
,,,,,,,space,0.5868,NAN,,NAN,,0,52,52,52,1,53,Charlie,Rej,Participant_Images/5aec7e89ae13140001fc0cdf/5aec7e89ae13140001fc0cdf_Images/5aec7e89ae13140001fc0cdf_Image_5.jpeg,did not like,4.940433059,,,,,,,,,,,,,,
,,,,,,,space,0.5056,NAN,,NAN,,0,53,53,53,1,54,Charlie,Rej,Participant_Images/5aec7e89ae13140001fc0cdf/5aec7e89ae13140001fc0cdf_Images/5aec7e89ae13140001fc0cdf_Image_24.jpeg,did not like,2.7105123,,,,,,,,,,,,,,
,,,,,,,,,,,,,,,,,,,,,,,,s,1,space,1.3155,0,0,0,0,1,0.2733,h,0.3062,,
,,,,,,,,,NAN,,NAN,,0,54,54,54,1,55,Charlie,Rej,Participant_Images/5aec7e89ae13140001fc0cdf/5aec7e89ae13140001fc0cdf_Images/5aec7e89ae13140001fc0cdf_Image_8.jpeg,did not like,3.602308302,,,,,,,,,,,,,,
,,,,,,,space,0.4882,NAN,,NAN,,0,55,55,55,1,56,Charlie,Rej,Participant_Images/5aec7e89ae13140001fc0cdf/5aec7e89ae13140001fc0cdf_Images/5aec7e89ae13140001fc0cdf_Image_19.jpeg,did not like,4.106391878,,,,,,,,,,,,,,
,,,,,,,space,0.5055,NAN,,NAN,,0,56,56,56,1,57,Charlie,Rej,Participant_Images/5aec7e89ae13140001fc0cdf/5aec7e89ae13140001fc0cdf_Images/5aec7e89ae13140001fc0cdf_Image_22.jpeg,liked,3.799433026,,,,,,,,,,,,,,
,,,,,,,space,0.2887,NAN,,NAN,,0,57,57,57,1,58,Charlie,Rej,Participant_Images/5aec7e89ae13140001fc0cdf/5aec7e89ae13140001fc0cdf_Images/5aec7e89ae13140001fc0cdf_Image_25.jpeg,did not like,5.246980764,,,,,,,,,,,,,,
,,,,,,,space,0.3713,NAN,,NAN,,0,58,58,58,1,59,Charlie,Rej,Participant_Images/5aec7e89ae13140001fc0cdf/5aec7e89ae13140001fc0cdf_Images/5aec7e89ae13140001fc0cdf_Image_17.jpeg,did not like,3.30081769,,,,,,,,,,,,,,
,,,,,,,,,,,,,,,,,,,,,,,,c,0,space,0.4565,0,0,0,0,1,0.5892,,,,
,,,,,,,,,2,,5,,0,59,59,59,1,60,Charlie,Rej,Participant_Images/5aec7e89ae13140001fc0cdf/5aec7e89ae13140001fc0cdf_Images/5aec7e89ae13140001fc0cdf_Image_2.jpeg,did not like,1.661473164,,,,,,,,,,,,,,
,,,,,space,1.1428,space,0.456,NAN,,NAN,,0,60,60,60,1,61,Riley,Acc,Participant_Images/5aec7e89ae13140001fc0cdf/5aec7e89ae13140001fc0cdf_Images/5aec7e89ae13140001fc0cdf_Image_12.jpeg,liked,3.613205605,,,,,,,,,,,,,,
,,,,,,,space,0.5219,NAN,,NAN,,0,61,61,61,1,62,Riley,Acc,Participant_Images/5aec7e89ae13140001fc0cdf/5aec7e89ae13140001fc0cdf_Images/5aec7e89ae13140001fc0cdf_Image_8.jpeg,liked,4.988446431,,,,,,,,,,,,,,
,,,,,,,space,0.2266,NAN,,NAN,,0,62,62,62,1,63,Riley,Acc,Participant_Images/5aec7e89ae13140001fc0cdf/5aec7e89ae13140001fc0cdf_Images/5aec7e89ae13140001fc0cdf_Image_18.jpeg,liked,3.470791822,,,,,,,,,,,,,,
,,,,,,,space,0.4567,NAN,,NAN,,0,63,63,63,1,64,Riley,Acc,Participant_Images/5aec7e89ae13140001fc0cdf/5aec7e89ae13140001fc0cdf_Images/5aec7e89ae13140001fc0cdf_Image_19.jpeg,liked,3.820572462,,,,,,,,,,,,,,
,,,,,,,,,,,,,,,,,,,,,,,,c,0,space,0.5829,0,0,0,0,1,0.2607,,,,
,,,,,,,,,NAN,,NAN,,0,64,64,64,1,65,Riley,Acc,Participant_Images/5aec7e89ae13140001fc0cdf/5aec7e89ae13140001fc0cdf_Images/5aec7e89ae13140001fc0cdf_Image_11.jpeg,liked,2.455989137,,,,,,,,,,,,,,
,,,,,,,space,0.8396,NAN,,NAN,,0,65,65,65,1,66,Riley,Acc,Participant_Images/5aec7e89ae13140001fc0cdf/5aec7e89ae13140001fc0cdf_Images/5aec7e89ae13140001fc0cdf_Image_29.jpeg,did not like,3.79605092,,,,,,,,,,,,,,
,,,,,,,space,1.0052,NAN,,NAN,,0,66,66,66,1,67,Riley,Acc,Participant_Images/5aec7e89ae13140001fc0cdf/5aec7e89ae13140001fc0cdf_Images/5aec7e89ae13140001fc0cdf_Image_9.jpeg,liked,3.562416326,,,,,,,,,,,,,,
,,,,,,,space,0.5717,NAN,,NAN,,0,67,67,67,1,68,Riley,Acc,Participant_Images/5aec7e89ae13140001fc0cdf/5aec7e89ae13140001fc0cdf_Images/5aec7e89ae13140001fc0cdf_Image_1.jpeg,did not like,2.843822497,,,,,,,,,,,,,,
,,,,,,,space,1.5883,NAN,,NAN,,0,68,68,68,1,69,Riley,Acc,Participant_Images/5aec7e89ae13140001fc0cdf/5aec7e89ae13140001fc0cdf_Images/5aec7e89ae13140001fc0cdf_Image_21.jpeg,liked,3.546495948,,,,,,,,,,,,,,
,,,,,,,,,,,,,,,,,,,,,,,,c,0,space,1.6275,0,0,0,0,1,1.9675,,,,
,,,,,,,,,NAN,,NAN,,0,69,69,69,1,70,Riley,Acc,Participant_Images/5aec7e89ae13140001fc0cdf/5aec7e89ae13140001fc0cdf_Images/5aec7e89ae13140001fc0cdf_Image_20.jpeg,liked,1.672012706,,,,,,,,,,,,,,
,,,,,,,space,97.7924,NAN,,NAN,,0,70,70,70,1,71,Riley,Acc,Participant_Images/5aec7e89ae13140001fc0cdf/5aec7e89ae13140001fc0cdf_Images/5aec7e89ae13140001fc0cdf_Image_14.jpeg,liked,4.942172136,,,,,,,,,,,,,,
,,,,,,,space,1.3057,NAN,,NAN,,0,71,71,71,1,72,Riley,Acc,Participant_Images/5aec7e89ae13140001fc0cdf/5aec7e89ae13140001fc0cdf_Images/5aec7e89ae13140001fc0cdf_Image_5.jpeg,did not like,2.50187214,,,,,,,,,,,,,,
,,,,,,,space,1.4039,NAN,,NAN,,0,72,72,72,1,73,Riley,Acc,Participant_Images/5aec7e89ae13140001fc0cdf/5aec7e89ae13140001fc0cdf_Images/5aec7e89ae13140001fc0cdf_Image_7.jpeg,liked,2.071164779,,,,,,,,,,,,,,
,,,,,,,space,0.2767,NAN,,NAN,,0,73,73,73,1,74,Riley,Acc,Participant_Images/5aec7e89ae13140001fc0cdf/5aec7e89ae13140001fc0cdf_Images/5aec7e89ae13140001fc0cdf_Image_24.jpeg,liked,5.336503566,,,,,,,,,,,,,,
,,,,,,,,,,,,,,,,,,,,,,,,c,0,space,1.022,0,0,0,0,1,1.0848,,,,
,,,,,,,,,NAN,,NAN,,0,74,74,74,1,75,Riley,Acc,Participant_Images/5aec7e89ae13140001fc0cdf/5aec7e89ae13140001fc0cdf_Images/5aec7e89ae13140001fc0cdf_Image_28.jpeg,did not like,2.642157193,,,,,,,,,,,,,,
,,,,,,,space,0.2966,NAN,,NAN,,0,75,75,75,1,76,Riley,Acc,Participant_Images/5aec7e89ae13140001fc0cdf/5aec7e89ae13140001fc0cdf_Images/5aec7e89ae13140001fc0cdf_Image_23.jpeg,liked,4.456234322,,,,,,,,,,,,,,
,,,,,,,space,0.5562,NAN,,NAN,,0,76,76,76,1,77,Riley,Acc,Participant_Images/5aec7e89ae13140001fc0cdf/5aec7e89ae13140001fc0cdf_Images/5aec7e89ae13140001fc0cdf_Image_3.jpeg,liked,4.438512181,,,,,,,,,,,,,,
,,,,,,,space,0.6371,NAN,,NAN,,0,77,77,77,1,78,Riley,Acc,Participant_Images/5aec7e89ae13140001fc0cdf/5aec7e89ae13140001fc0cdf_Images/5aec7e89ae13140001fc0cdf_Image_17.jpeg,did not like,2.682944783,,,,,,,,,,,,,,
,,,,,,,space,0.8052,NAN,,NAN,,0,78,78,78,1,79,Riley,Acc,Participant_Images/5aec7e89ae13140001fc0cdf/5aec7e89ae13140001fc0cdf_Images/5aec7e89ae13140001fc0cdf_Image_30.jpeg,did not like,4.51984296,,,,,,,,,,,,,,
,,,,,,,,,,,,,,,,,,,,,,,,c,0,space,0.8735,0,0,0,0,1,0.4689,,,,
,,,,,,,,,NAN,,NAN,,0,79,79,79,1,80,Riley,Acc,Participant_Images/5aec7e89ae13140001fc0cdf/5aec7e89ae13140001fc0cdf_Images/5aec7e89ae13140001fc0cdf_Image_4.jpeg,did not like,3.195382774,,,,,,,,,,,,,,
,,,,,,,space,0.3723,NAN,,NAN,,0,80,80,80,1,81,Riley,Acc,Participant_Images/5aec7e89ae13140001fc0cdf/5aec7e89ae13140001fc0cdf_Images/5aec7e89ae13140001fc0cdf_Image_10.jpeg,did not like,1.779333479,,,,,,,,,,,,,,
,,,,,,,space,0.3249,NAN,,NAN,,0,81,81,81,1,82,Riley,Acc,Participant_Images/5aec7e89ae13140001fc0cdf/5aec7e89ae13140001fc0cdf_Images/5aec7e89ae13140001fc0cdf_Image_13.jpeg,liked,4.312468682,,,,,,,,,,,,,,
,,,,,,,space,0.5397,NAN,,NAN,,0,82,82,82,1,83,Riley,Acc,Participant_Images/5aec7e89ae13140001fc0cdf/5aec7e89ae13140001fc0cdf_Images/5aec7e89ae13140001fc0cdf_Image_6.jpeg,liked,4.940433059,,,,,,,,,,,,,,
,,,,,,,space,0.8535,NAN,,NAN,,0,83,83,83,1,84,Riley,Acc,Participant_Images/5aec7e89ae13140001fc0cdf/5aec7e89ae13140001fc0cdf_Images/5aec7e89ae13140001fc0cdf_Image_27.jpeg,liked,2.7105123,,,,,,,,,,,,,,
,,,,,,,,,,,,,,,,,,,,,,,,c,0,space,1.042,0,0,0,0,1,0.957,,,,
,,,,,,,,,NAN,,NAN,,0,84,84,84,1,85,Riley,Acc,Participant_Images/5aec7e89ae13140001fc0cdf/5aec7e89ae13140001fc0cdf_Images/5aec7e89ae13140001fc0cdf_Image_2.jpeg,did not like,3.602308302,,,,,,,,,,,,,,
,,,,,,,space,1.2071,NAN,,NAN,,0,85,85,85,1,86,Riley,Acc,Participant_Images/5aec7e89ae13140001fc0cdf/5aec7e89ae13140001fc0cdf_Images/5aec7e89ae13140001fc0cdf_Image_16.jpeg,liked,4.106391878,,,,,,,,,,,,,,
,,,,,,,space,1.8555,NAN,,NAN,,0,86,86,86,1,87,Riley,Acc,Participant_Images/5aec7e89ae13140001fc0cdf/5aec7e89ae13140001fc0cdf_Images/5aec7e89ae13140001fc0cdf_Image_25.jpeg,liked,3.799433026,,,,,,,,,,,,,,
,,,,,,,space,1.1067,NAN,,NAN,,0,87,87,87,1,88,Riley,Acc,Participant_Images/5aec7e89ae13140001fc0cdf/5aec7e89ae13140001fc0cdf_Images/5aec7e89ae13140001fc0cdf_Image_26.jpeg,liked,5.246980764,,,,,,,,,,,,,,
,,,,,,,space,0.5412,NAN,,NAN,,0,88,88,88,1,89,Riley,Acc,Participant_Images/5aec7e89ae13140001fc0cdf/5aec7e89ae13140001fc0cdf_Images/5aec7e89ae13140001fc0cdf_Image_22.jpeg,liked,3.30081769,,,,,,,,,,,,,,
,,,,,,,,,,,,,,,,,,,,,,,,c,0,space,1.5724,0,0,0,0,1,0.8879,,,,
,,,,,,,,,4,,6,,0,89,89,89,1,90,Riley,Acc,Participant_Images/5aec7e89ae13140001fc0cdf/5aec7e89ae13140001fc0cdf_Images/5aec7e89ae13140001fc0cdf_Image_15.jpeg,liked,1.661473164,,,,,,,,,,,,,,
,,,,,space,179.0819,space,0.3071,NAN,,NAN,,0,90,90,90,1,91,Sam,Neutral,Participant_Images/5aec7e89ae13140001fc0cdf/5aec7e89ae13140001fc0cdf_Images/5aec7e89ae13140001fc0cdf_Image_15.jpeg,liked,3.613205605,,,,,,,,,,,,,,
,,,,,,,space,0.3592,NAN,,NAN,,0,91,91,91,1,92,Sam,Neutral,Participant_Images/5aec7e89ae13140001fc0cdf/5aec7e89ae13140001fc0cdf_Images/5aec7e89ae13140001fc0cdf_Image_13.jpeg,liked,4.988446431,,,,,,,,,,,,,,
,,,,,,,space,0.3248,NAN,,NAN,,0,92,92,92,1,93,Sam,Neutral,Participant_Images/5aec7e89ae13140001fc0cdf/5aec7e89ae13140001fc0cdf_Images/5aec7e89ae13140001fc0cdf_Image_19.jpeg,did not like,3.470791822,,,,,,,,,,,,,,
,,,,,,,space,0.6416,NAN,,NAN,,0,93,93,93,1,94,Sam,Neutral,Participant_Images/5aec7e89ae13140001fc0cdf/5aec7e89ae13140001fc0cdf_Images/5aec7e89ae13140001fc0cdf_Image_27.jpeg,liked,3.820572462,,,,,,,,,,,,,,
,,,,,,,,,,,,,,,,,,,,,,,,c,0,space,0.9451,0,0,0,0,1,1.244,,,,
,,,,,,,,,NAN,,NAN,,0,94,94,94,1,95,Sam,Neutral,Participant_Images/5aec7e89ae13140001fc0cdf/5aec7e89ae13140001fc0cdf_Images/5aec7e89ae13140001fc0cdf_Image_30.jpeg,did not like,2.455989137,,,,,,,,,,,,,,
,,,,,,,space,0.4538,NAN,,NAN,,0,95,95,95,1,96,Sam,Neutral,Participant_Images/5aec7e89ae13140001fc0cdf/5aec7e89ae13140001fc0cdf_Images/5aec7e89ae13140001fc0cdf_Image_6.jpeg,did not like,3.79605092,,,,,,,,,,,,,,
,,,,,,,space,0.3901,NAN,,NAN,,0,96,96,96,1,97,Sam,Neutral,Participant_Images/5aec7e89ae13140001fc0cdf/5aec7e89ae13140001fc0cdf_Images/5aec7e89ae13140001fc0cdf_Image_17.jpeg,liked,3.562416326,,,,,,,,,,,,,,
,,,,,,,space,0.7052,NAN,,NAN,,0,97,97,97,1,98,Sam,Neutral,Participant_Images/5aec7e89ae13140001fc0cdf/5aec7e89ae13140001fc0cdf_Images/5aec7e89ae13140001fc0cdf_Image_9.jpeg,did not like,2.843822497,,,,,,,,,,,,,,
,,,,,,,space,1.1039,NAN,,NAN,,0,98,98,98,1,99,Sam,Neutral,Participant_Images/5aec7e89ae13140001fc0cdf/5aec7e89ae13140001fc0cdf_Images/5aec7e89ae13140001fc0cdf_Image_22.jpeg,did not like,3.546495948,,,,,,,,,,,,,,
,,,,,,,,,,,,,,,,,,,,,,,,c,0,space,168.1267,0,0,0,0,1,1.4391,,,,
,,,,,,,,,NAN,,NAN,,0,99,99,99,1,100,Sam,Neutral,Participant_Images/5aec7e89ae13140001fc0cdf/5aec7e89ae13140001fc0cdf_Images/5aec7e89ae13140001fc0cdf_Image_14.jpeg,did not like,1.672012706,,,,,,,,,,,,,,
,,,,,,,space,0.4547,NAN,,NAN,,0,100,100,100,1,101,Sam,Neutral,Participant_Images/5aec7e89ae13140001fc0cdf/5aec7e89ae13140001fc0cdf_Images/5aec7e89ae13140001fc0cdf_Image_7.jpeg,liked,4.942172136,,,,,,,,,,,,,,
,,,,,,,space,1.5889,NAN,,NAN,,0,101,101,101,1,102,Sam,Neutral,Participant_Images/5aec7e89ae13140001fc0cdf/5aec7e89ae13140001fc0cdf_Images/5aec7e89ae13140001fc0cdf_Image_11.jpeg,did not like,2.50187214,,,,,,,,,,,,,,
,,,,,,,space,0.5182,NAN,,NAN,,0,102,102,102,1,103,Sam,Neutral,Participant_Images/5aec7e89ae13140001fc0cdf/5aec7e89ae13140001fc0cdf_Images/5aec7e89ae13140001fc0cdf_Image_18.jpeg,liked,2.071164779,,,,,,,,,,,,,,
,,,,,,,space,0.3218,NAN,,NAN,,0,103,103,103,1,104,Sam,Neutral,Participant_Images/5aec7e89ae13140001fc0cdf/5aec7e89ae13140001fc0cdf_Images/5aec7e89ae13140001fc0cdf_Image_2.jpeg,liked,5.336503566,,,,,,,,,,,,,,
,,,,,,,,,,,,,,,,,,,,,,,,c,0,space,0.2364,0,0,0,0,1,0.3186,,,,
,,,,,,,,,NAN,,NAN,,0,104,104,104,1,105,Sam,Neutral,Participant_Images/5aec7e89ae13140001fc0cdf/5aec7e89ae13140001fc0cdf_Images/5aec7e89ae13140001fc0cdf_Image_8.jpeg,liked,2.642157193,,,,,,,,,,,,,,
,,,,,,,space,1.3389,NAN,,NAN,,0,105,105,105,1,106,Sam,Neutral,Participant_Images/5aec7e89ae13140001fc0cdf/5aec7e89ae13140001fc0cdf_Images/5aec7e89ae13140001fc0cdf_Image_28.jpeg,liked,4.456234322,,,,,,,,,,,,,,
,,,,,,,space,1.2056,NAN,,NAN,,0,106,106,106,1,107,Sam,Neutral,Participant_Images/5aec7e89ae13140001fc0cdf/5aec7e89ae13140001fc0cdf_Images/5aec7e89ae13140001fc0cdf_Image_5.jpeg,did not like,4.438512181,,,,,,,,,,,,,,
,,,,,,,space,3.1361,NAN,,NAN,,0,107,107,107,1,108,Sam,Neutral,Participant_Images/5aec7e89ae13140001fc0cdf/5aec7e89ae13140001fc0cdf_Images/5aec7e89ae13140001fc0cdf_Image_4.jpeg,did not like,2.682944783,,,,,,,,,,,,,,
,,,,,,,space,0.6558,NAN,,NAN,,0,108,108,108,1,109,Sam,Neutral,Participant_Images/5aec7e89ae13140001fc0cdf/5aec7e89ae13140001fc0cdf_Images/5aec7e89ae13140001fc0cdf_Image_20.jpeg,did not like,4.51984296,,,,,,,,,,,,,,
,,,,,,,,,,,,,,,,,,,,,,,,c,0,space,1.2539,0,0,0,0,1,1.3046,,,,
,,,,,,,,,NAN,,NAN,,0,109,109,109,1,110,Sam,Neutral,Participant_Images/5aec7e89ae13140001fc0cdf/5aec7e89ae13140001fc0cdf_Images/5aec7e89ae13140001fc0cdf_Image_25.jpeg,liked,3.195382774,,,,,,,,,,,,,,
,,,,,,,space,1.1214,NAN,,NAN,,0,110,110,110,1,111,Sam,Neutral,Participant_Images/5aec7e89ae13140001fc0cdf/5aec7e89ae13140001fc0cdf_Images/5aec7e89ae13140001fc0cdf_Image_16.jpeg,did not like,1.779333479,,,,,,,,,,,,,,
,,,,,,,space,0.5401,NAN,,NAN,,0,111,111,111,1,112,Sam,Neutral,Participant_Images/5aec7e89ae13140001fc0cdf/5aec7e89ae13140001fc0cdf_Images/5aec7e89ae13140001fc0cdf_Image_1.jpeg,liked,4.312468682,,,,,,,,,,,,,,
,,,,,,,space,0.4541,NAN,,NAN,,0,112,112,112,1,113,Sam,Neutral,Participant_Images/5aec7e89ae13140001fc0cdf/5aec7e89ae13140001fc0cdf_Images/5aec7e89ae13140001fc0cdf_Image_26.jpeg,did not like,4.940433059,,,,,,,,,,,,,,
,,,,,,,space,0.9878,NAN,,NAN,,0,113,113,113,1,114,Sam,Neutral,Participant_Images/5aec7e89ae13140001fc0cdf/5aec7e89ae13140001fc0cdf_Images/5aec7e89ae13140001fc0cdf_Image_21.jpeg,liked,2.7105123,,,,,,,,,,,,,,
,,,,,,,,,,,,,,,,,,,,,,,,c,0,space,1.1414,0,0,0,0,1,1.2395,,,,
,,,,,,,,,NAN,,NAN,,0,114,114,114,1,115,Sam,Neutral,Participant_Images/5aec7e89ae13140001fc0cdf/5aec7e89ae13140001fc0cdf_Images/5aec7e89ae13140001fc0cdf_Image_29.jpeg,did not like,3.602308302,,,,,,,,,,,,,,
,,,,,,,space,0.4878,NAN,,NAN,,0,115,115,115,1,116,Sam,Neutral,Participant_Images/5aec7e89ae13140001fc0cdf/5aec7e89ae13140001fc0cdf_Images/5aec7e89ae13140001fc0cdf_Image_23.jpeg,did not like,4.106391878,,,,,,,,,,,,,,
,,,,,,,space,0.5557,NAN,,NAN,,0,116,116,116,1,117,Sam,Neutral,Participant_Images/5aec7e89ae13140001fc0cdf/5aec7e89ae13140001fc0cdf_Images/5aec7e89ae13140001fc0cdf_Image_24.jpeg,liked,3.799433026,,,,,,,,,,,,,,
,,,,,,,space,28.1995,NAN,,NAN,,0,117,117,117,1,118,Sam,Neutral,Participant_Images/5aec7e89ae13140001fc0cdf/5aec7e89ae13140001fc0cdf_Images/5aec7e89ae13140001fc0cdf_Image_12.jpeg,liked,5.246980764,,,,,,,,,,,,,,
,,,,,,,space,0.2572,NAN,,NAN,,0,118,118,118,1,119,Sam,Neutral,Participant_Images/5aec7e89ae13140001fc0cdf/5aec7e89ae13140001fc0cdf_Images/5aec7e89ae13140001fc0cdf_Image_3.jpeg,did not like,3.30081769,,,,,,,,,,,,,,
,,,,,,,,,,,,,,,,,,,,,,,,c,0,space,0.4935,0,0,0,0,1,0.4342,,,,
,,,,,,,,,3,,6,,0,119,119,119,1,120,Sam,Neutral,Participant_Images/5aec7e89ae13140001fc0cdf/5aec7e89ae13140001fc0cdf_Images/5aec7e89ae13140001fc0cdf_Image_10.jpeg,liked,1.661473164,,,,,,,,,,,,,,
,,,,,space,0.5533,space,0.255,NAN,,NAN,,0,120,120,120,1,121,Taylor,Rej,Participant_Images/5aec7e89ae13140001fc0cdf/5aec7e89ae13140001fc0cdf_Images/5aec7e89ae13140001fc0cdf_Image_20.jpeg,did not like,3.613205605,,,,,,,,,,,,,,
,,,,,,,space,0.6053,NAN,,NAN,,0,121,121,121,1,122,Taylor,Rej,Participant_Images/5aec7e89ae13140001fc0cdf/5aec7e89ae13140001fc0cdf_Images/5aec7e89ae13140001fc0cdf_Image_12.jpeg,liked,4.988446431,,,,,,,,,,,,,,
,,,,,,,space,0.5772,NAN,,NAN,,0,122,122,122,1,123,Taylor,Rej,Participant_Images/5aec7e89ae13140001fc0cdf/5aec7e89ae13140001fc0cdf_Images/5aec7e89ae13140001fc0cdf_Image_27.jpeg,did not like,3.470791822,,,,,,,,,,,,,,
,,,,,,,space,0.3055,NAN,,NAN,,0,123,123,123,1,124,Taylor,Rej,Participant_Images/5aec7e89ae13140001fc0cdf/5aec7e89ae13140001fc0cdf_Images/5aec7e89ae13140001fc0cdf_Image_22.jpeg,did not like,3.820572462,,,,,,,,,,,,,,
,,,,,,,,,,,,,,,,,,,,,,,,c,0,space,1.0376,0,0,0,0,1,1.315,,,,
,,,,,,,,,NAN,,NAN,,0,124,124,124,1,125,Taylor,Rej,Participant_Images/5aec7e89ae13140001fc0cdf/5aec7e89ae13140001fc0cdf_Images/5aec7e89ae13140001fc0cdf_Image_1.jpeg,liked,2.455989137,,,,,,,,,,,,,,
,,,,,,,space,0.9386,NAN,,NAN,,0,125,125,125,1,126,Taylor,Rej,Participant_Images/5aec7e89ae13140001fc0cdf/5aec7e89ae13140001fc0cdf_Images/5aec7e89ae13140001fc0cdf_Image_13.jpeg,did not like,3.79605092,,,,,,,,,,,,,,
,,,,,,,space,2.1874,NAN,,NAN,,0,126,126,126,1,127,Taylor,Rej,Participant_Images/5aec7e89ae13140001fc0cdf/5aec7e89ae13140001fc0cdf_Images/5aec7e89ae13140001fc0cdf_Image_17.jpeg,liked,3.562416326,,,,,,,,,,,,,,
,,,,,,,space,0.5725,NAN,,NAN,,0,127,127,127,1,128,Taylor,Rej,Participant_Images/5aec7e89ae13140001fc0cdf/5aec7e89ae13140001fc0cdf_Images/5aec7e89ae13140001fc0cdf_Image_3.jpeg,did not like,2.843822497,,,,,,,,,,,,,,
,,,,,,,space,0.7054,NAN,,NAN,,0,128,128,128,1,129,Taylor,Rej,Participant_Images/5aec7e89ae13140001fc0cdf/5aec7e89ae13140001fc0cdf_Images/5aec7e89ae13140001fc0cdf_Image_15.jpeg,did not like,3.546495948,,,,,,,,,,,,,,
,,,,,,,,,,,,,,,,,,,,,,,,c,0,space,1.0741,0,0,0,0,1,1.3624,,,,
,,,,,,,,,NAN,,NAN,,0,129,129,129,1,130,Taylor,Rej,Participant_Images/5aec7e89ae13140001fc0cdf/5aec7e89ae13140001fc0cdf_Images/5aec7e89ae13140001fc0cdf_Image_4.jpeg,liked,1.672012706,,,,,,,,,,,,,,
,,,,,,,space,1.3192,NAN,,NAN,,0,130,130,130,1,131,Taylor,Rej,Participant_Images/5aec7e89ae13140001fc0cdf/5aec7e89ae13140001fc0cdf_Images/5aec7e89ae13140001fc0cdf_Image_16.jpeg,did not like,4.942172136,,,,,,,,,,,,,,
,,,,,,,space,0.9222,NAN,,NAN,,0,131,131,131,1,132,Taylor,Rej,Participant_Images/5aec7e89ae13140001fc0cdf/5aec7e89ae13140001fc0cdf_Images/5aec7e89ae13140001fc0cdf_Image_9.jpeg,did not like,2.50187214,,,,,,,,,,,,,,
,,,,,,,space,1.0385,NAN,,NAN,,0,132,132,132,1,133,Taylor,Rej,Participant_Images/5aec7e89ae13140001fc0cdf/5aec7e89ae13140001fc0cdf_Images/5aec7e89ae13140001fc0cdf_Image_11.jpeg,did not like,2.071164779,,,,,,,,,,,,,,
,,,,,,,space,0.7347,NAN,,NAN,,0,133,133,133,1,134,Taylor,Rej,Participant_Images/5aec7e89ae13140001fc0cdf/5aec7e89ae13140001fc0cdf_Images/5aec7e89ae13140001fc0cdf_Image_7.jpeg,did not like,5.336503566,,,,,,,,,,,,,,
,,,,,,,,,,,,,,,,,,,,,,,,c,0,space,0.577,0,0,0,0,1,0.6541,,,,
,,,,,,,,,NAN,,NAN,,0,134,134,134,1,135,Taylor,Rej,Participant_Images/5aec7e89ae13140001fc0cdf/5aec7e89ae13140001fc0cdf_Images/5aec7e89ae13140001fc0cdf_Image_5.jpeg,did not like,2.642157193,,,,,,,,,,,,,,
,,,,,,,space,0.5569,NAN,,NAN,,0,135,135,135,1,136,Taylor,Rej,Participant_Images/5aec7e89ae13140001fc0cdf/5aec7e89ae13140001fc0cdf_Images/5aec7e89ae13140001fc0cdf_Image_10.jpeg,did not like,4.456234322,,,,,,,,,,,,,,
,,,,,,,space,0.6042,NAN,,NAN,,0,136,136,136,1,137,Taylor,Rej,Participant_Images/5aec7e89ae13140001fc0cdf/5aec7e89ae13140001fc0cdf_Images/5aec7e89ae13140001fc0cdf_Image_21.jpeg,did not like,4.438512181,,,,,,,,,,,,,,
,,,,,,,space,0.5555,NAN,,NAN,,0,137,137,137,1,138,Taylor,Rej,Participant_Images/5aec7e89ae13140001fc0cdf/5aec7e89ae13140001fc0cdf_Images/5aec7e89ae13140001fc0cdf_Image_30.jpeg,did not like,2.682944783,,,,,,,,,,,,,,
,,,,,,,space,0.8583,NAN,,NAN,,0,138,138,138,1,139,Taylor,Rej,Participant_Images/5aec7e89ae13140001fc0cdf/5aec7e89ae13140001fc0cdf_Images/5aec7e89ae13140001fc0cdf_Image_8.jpeg,liked,4.51984296,,,,,,,,,,,,,,
,,,,,,,,,,,,,,,,,,,,,,,,s,1,space,0.7796,0,0,0,0,1,1.9178,h,0.6904,,
,,,,,,,,,NAN,,NAN,,0,139,139,139,1,140,Taylor,Rej,Participant_Images/5aec7e89ae13140001fc0cdf/5aec7e89ae13140001fc0cdf_Images/5aec7e89ae13140001fc0cdf_Image_28.jpeg,did not like,3.195382774,,,,,,,,,,,,,,
,,,,,,,space,0.5069,NAN,,NAN,,0,140,140,140,1,141,Taylor,Rej,Participant_Images/5aec7e89ae13140001fc0cdf/5aec7e89ae13140001fc0cdf_Images/5aec7e89ae13140001fc0cdf_Image_14.jpeg,did not like,1.779333479,,,,,,,,,,,,,,
,,,,,,,space,0.8755,NAN,,NAN,,0,141,141,141,1,142,Taylor,Rej,Participant_Images/5aec7e89ae13140001fc0cdf/5aec7e89ae13140001fc0cdf_Images/5aec7e89ae13140001fc0cdf_Image_24.jpeg,did not like,4.312468682,,,,,,,,,,,,,,
,,,,,,,space,0.3554,NAN,,NAN,,0,142,142,142,1,143,Taylor,Rej,Participant_Images/5aec7e89ae13140001fc0cdf/5aec7e89ae13140001fc0cdf_Images/5aec7e89ae13140001fc0cdf_Image_19.jpeg,liked,4.940433059,,,,,,,,,,,,,,
,,,,,,,space,0.7538,NAN,,NAN,,0,143,143,143,1,144,Taylor,Rej,Participant_Images/5aec7e89ae13140001fc0cdf/5aec7e89ae13140001fc0cdf_Images/5aec7e89ae13140001fc0cdf_Image_29.jpeg,did not like,2.7105123,,,,,,,,,,,,,,
,,,,,,,,,,,,,,,,,,,,,,,,s,1,space,0.5982,0,0,0,0,1,1.617,h,0.4096,,
,,,,,,,,,NAN,,NAN,,0,144,144,144,1,145,Taylor,Rej,Participant_Images/5aec7e89ae13140001fc0cdf/5aec7e89ae13140001fc0cdf_Images/5aec7e89ae13140001fc0cdf_Image_2.jpeg,did not like,3.602308302,,,,,,,,,,,,,,
,,,,,,,space,0.3719,NAN,,NAN,,0,145,145,145,1,146,Taylor,Rej,Participant_Images/5aec7e89ae13140001fc0cdf/5aec7e89ae13140001fc0cdf_Images/5aec7e89ae13140001fc0cdf_Image_26.jpeg,liked,4.106391878,,,,,,,,,,,,,,
,,,,,,,space,0.472,NAN,,NAN,,0,146,146,146,1,147,Taylor,Rej,Participant_Images/5aec7e89ae13140001fc0cdf/5aec7e89ae13140001fc0cdf_Images/5aec7e89ae13140001fc0cdf_Image_18.jpeg,liked,3.799433026,,,,,,,,,,,,,,
,,,,,,,space,0.3725,NAN,,NAN,,0,147,147,147,1,148,Taylor,Rej,Participant_Images/5aec7e89ae13140001fc0cdf/5aec7e89ae13140001fc0cdf_Images/5aec7e89ae13140001fc0cdf_Image_25.jpeg,did not like,5.246980764,,,,,,,,,,,,,,
,,,,,,,space,0.4111,NAN,,NAN,,0,148,148,148,1,149,Taylor,Rej,Participant_Images/5aec7e89ae13140001fc0cdf/5aec7e89ae13140001fc0cdf_Images/5aec7e89ae13140001fc0cdf_Image_23.jpeg,liked,3.30081769,,,,,,,,,,,,,,
,,,,,,,,,,,,,,,,,,,,,,,,c,0,space,1.2498,0,0,0,0,1,1.6046,,,,
,,,,,,,,,1,,4,,0,149,149,149,1,150,Taylor,Rej,Participant_Images/5aec7e89ae13140001fc0cdf/5aec7e89ae13140001fc0cdf_Images/5aec7e89ae13140001fc0cdf_Image_6.jpeg,did not like,1.661473164,,,,,,,,,,,,,,
,,,,,,,,,,,,,,,,,,,,,,,,,,,,,,,,,,,,space,2.2702
