PROLIFIC_ID,endwelcomescreen_keys.keys,endwelcomescreen_keys.rt,endinstructionscreen_keys.keys,endinstructionscreen_keys.rt,endpartnermatch_keys.keys,endpartnermatch_keys.rt,sharenextphoto_key.keys,sharenextphoto_key.rt,salience_rating,key_resp.keys,stress_level,stresslevel_keypress.keys,entiretaskloop.thisRepN,entiretaskloop.thisTrialN,entiretaskloop.thisN,entiretaskloop.thisIndex,entiretaskloop.ran,TrialNumber,Partner,Condition,Photos,Feedback,FeedbackWait,choice_keys.keys,playlottery,resumeafterlottery_keys.keys,resumeafterlottery_keys.rt,lotteryloop.thisRepN,lotteryloop.thisTrialN,lotteryloop.thisN,lotteryloop.thisIndex,lotteryloop.ran,choice_keys.rt,lotteryguess_keys.keys,lotteryguess_keys.rt,end_screen_keys.keys,end_screen_keys.rt
5c1edaeaafeeef00011588b3,space,16.178,,,,,,,,,,,,,,,,,,,,,,,,,,,,,,,,,,,
,,,,,,,,,,,,,,,,,,,,,,,,,,,,,,,,,,,,,
,,,space,12.347,,,,,,,,,,,,,,,,,,,,,,,,,,,,,,,,,
,,,,,space,1.771,space,1.204,NAN,,NAN,,0,0,0,0,1,1,Alex,Rej,Participant_Images/5c1edaeaafeeef00011588b3/5c1edaeaafeeef00011588b3_Images/5c1edaeaafeeef00011588b3_Image_8.jpeg,did not like,3.613205605,,,,,,,,,,,,,,
,,,,,,,space,1.04,NAN,,NAN,,0,1,1,1,1,2,Alex,Rej,Participant_Images/5c1edaeaafeeef00011588b3/5c1edaeaafeeef00011588b3_Images/5c1edaeaafeeef00011588b3_Image_4.jpeg,did not like,4.988446431,,,,,,,,,,,,,,
,,,,,,,space,1.097,NAN,,NAN,,0,2,2,2,1,3,Alex,Rej,Participant_Images/5c1edaeaafeeef00011588b3/5c1edaeaafeeef00011588b3_Images/5c1edaeaafeeef00011588b3_Image_14.jpeg,did not like,3.470791822,,,,,,,,,,,,,,
,,,,,,,space,0.912,NAN,,NAN,,0,3,3,3,1,4,Alex,Rej,Participant_Images/5c1edaeaafeeef00011588b3/5c1edaeaafeeef00011588b3_Images/5c1edaeaafeeef00011588b3_Image_3.jpeg,did not like,3.820572462,,,,,,,,,,,,,,
,,,,,,,,,,,,,,,,,,,,,,,,,999,space,2.314,0,0,0,0,1,,,,,
,,,,,,,,,NAN,,NAN,,0,4,4,4,1,5,Alex,Rej,Participant_Images/5c1edaeaafeeef00011588b3/5c1edaeaafeeef00011588b3_Images/5c1edaeaafeeef00011588b3_Image_22.jpeg,did not like,2.455989137,,,,,,,,,,,,,,
,,,,,,,space,2.734,NAN,,NAN,,0,5,5,5,1,6,Alex,Rej,Participant_Images/5c1edaeaafeeef00011588b3/5c1edaeaafeeef00011588b3_Images/5c1edaeaafeeef00011588b3_Image_23.jpeg,did not like,3.79605092,,,,,,,,,,,,,,
,,,,,,,space,0.593,NAN,,NAN,,0,6,6,6,1,7,Alex,Rej,Participant_Images/5c1edaeaafeeef00011588b3/5c1edaeaafeeef00011588b3_Images/5c1edaeaafeeef00011588b3_Image_26.jpeg,did not like,3.562416326,,,,,,,,,,,,,,
,,,,,,,space,0.609,NAN,,NAN,,0,7,7,7,1,8,Alex,Rej,Participant_Images/5c1edaeaafeeef00011588b3/5c1edaeaafeeef00011588b3_Images/5c1edaeaafeeef00011588b3_Image_28.jpeg,liked,2.843822497,,,,,,,,,,,,,,
,,,,,,,space,0.556,NAN,,NAN,,0,8,8,8,1,9,Alex,Rej,Participant_Images/5c1edaeaafeeef00011588b3/5c1edaeaafeeef00011588b3_Images/5c1edaeaafeeef00011588b3_Image_9.jpeg,did not like,3.546495948,,,,,,,,,,,,,,
,,,,,,,,,,,,,,,,,,,,,,,,c,0,space,0.767,0,0,0,0,1,0.897,,,,
,,,,,,,,,NAN,,NAN,,0,9,9,9,1,10,Alex,Rej,Participant_Images/5c1edaeaafeeef00011588b3/5c1edaeaafeeef00011588b3_Images/5c1edaeaafeeef00011588b3_Image_29.jpeg,did not like,1.672012706,,,,,,,,,,,,,,
,,,,,,,space,1.007,NAN,,NAN,,0,10,10,10,1,11,Alex,Rej,Participant_Images/5c1edaeaafeeef00011588b3/5c1edaeaafeeef00011588b3_Images/5c1edaeaafeeef00011588b3_Image_11.jpeg,liked,4.942172136,,,,,,,,,,,,,,
,,,,,,,space,0.607,NAN,,NAN,,0,11,11,11,1,12,Alex,Rej,Participant_Images/5c1edaeaafeeef00011588b3/5c1edaeaafeeef00011588b3_Images/5c1edaeaafeeef00011588b3_Image_18.jpeg,did not like,2.50187214,,,,,,,,,,,,,,
,,,,,,,space,0.769,NAN,,NAN,,0,12,12,12,1,13,Alex,Rej,Participant_Images/5c1edaeaafeeef00011588b3/5c1edaeaafeeef00011588b3_Images/5c1edaeaafeeef00011588b3_Image_2.jpeg,liked,2.071164779,,,,,,,,,,,,,,
,,,,,,,space,0.584,NAN,,NAN,,0,13,13,13,1,14,Alex,Rej,Participant_Images/5c1edaeaafeeef00011588b3/5c1edaeaafeeef00011588b3_Images/5c1edaeaafeeef00011588b3_Image_17.jpeg,liked,5.336503566,,,,,,,,,,,,,,
,,,,,,,,,,,,,,,,,,,,,,,,s,1,space,0.758,0,0,0,0,1,1.181,h,2.567,,
,,,,,,,,,NAN,,NAN,,0,14,14,14,1,15,Alex,Rej,Participant_Images/5c1edaeaafeeef00011588b3/5c1edaeaafeeef00011588b3_Images/5c1edaeaafeeef00011588b3_Image_1.jpeg,did not like,2.642157193,,,,,,,,,,,,,,
,,,,,,,space,0.596,NAN,,NAN,,0,15,15,15,1,16,Alex,Rej,Participant_Images/5c1edaeaafeeef00011588b3/5c1edaeaafeeef00011588b3_Images/5c1edaeaafeeef00011588b3_Image_27.jpeg,liked,4.456234322,,,,,,,,,,,,,,
,,,,,,,space,0.644,NAN,,NAN,,0,16,16,16,1,17,Alex,Rej,Participant_Images/5c1edaeaafeeef00011588b3/5c1edaeaafeeef00011588b3_Images/5c1edaeaafeeef00011588b3_Image_5.jpeg,did not like,4.438512181,,,,,,,,,,,,,,
,,,,,,,space,0.601,NAN,,NAN,,0,17,17,17,1,18,Alex,Rej,Participant_Images/5c1edaeaafeeef00011588b3/5c1edaeaafeeef00011588b3_Images/5c1edaeaafeeef00011588b3_Image_21.jpeg,did not like,2.682944783,,,,,,,,,,,,,,
,,,,,,,space,0.836,NAN,,NAN,,0,18,18,18,1,19,Alex,Rej,Participant_Images/5c1edaeaafeeef00011588b3/5c1edaeaafeeef00011588b3_Images/5c1edaeaafeeef00011588b3_Image_20.jpeg,liked,4.51984296,,,,,,,,,,,,,,
,,,,,,,,,,,,,,,,,,,,,,,,s,1,space,0.669,0,0,0,0,1,1.504,l,1.633,,
,,,,,,,,,NAN,,NAN,,0,19,19,19,1,20,Alex,Rej,Participant_Images/5c1edaeaafeeef00011588b3/5c1edaeaafeeef00011588b3_Images/5c1edaeaafeeef00011588b3_Image_10.jpeg,liked,3.195382774,,,,,,,,,,,,,,
,,,,,,,space,0.629,NAN,,NAN,,0,20,20,20,1,21,Alex,Rej,Participant_Images/5c1edaeaafeeef00011588b3/5c1edaeaafeeef00011588b3_Images/5c1edaeaafeeef00011588b3_Image_7.jpeg,did not like,1.779333479,,,,,,,,,,,,,,
,,,,,,,space,0.746,NAN,,NAN,,0,21,21,21,1,22,Alex,Rej,Participant_Images/5c1edaeaafeeef00011588b3/5c1edaeaafeeef00011588b3_Images/5c1edaeaafeeef00011588b3_Image_16.jpeg,did not like,4.312468682,,,,,,,,,,,,,,
,,,,,,,space,0.603,NAN,,NAN,,0,22,22,22,1,23,Alex,Rej,Participant_Images/5c1edaeaafeeef00011588b3/5c1edaeaafeeef00011588b3_Images/5c1edaeaafeeef00011588b3_Image_15.jpeg,did not like,4.940433059,,,,,,,,,,,,,,
,,,,,,,space,0.741,NAN,,NAN,,0,23,23,23,1,24,Alex,Rej,Participant_Images/5c1edaeaafeeef00011588b3/5c1edaeaafeeef00011588b3_Images/5c1edaeaafeeef00011588b3_Image_25.jpeg,did not like,2.7105123,,,,,,,,,,,,,,
,,,,,,,,,,,,,,,,,,,,,,,,c,0,space,0.618,0,0,0,0,1,0.849,,,,
,,,,,,,,,NAN,,NAN,,0,24,24,24,1,25,Alex,Rej,Participant_Images/5c1edaeaafeeef00011588b3/5c1edaeaafeeef00011588b3_Images/5c1edaeaafeeef00011588b3_Image_19.jpeg,liked,3.602308302,,,,,,,,,,,,,,
,,,,,,,space,0.65,NAN,,NAN,,0,25,25,25,1,26,Alex,Rej,Participant_Images/5c1edaeaafeeef00011588b3/5c1edaeaafeeef00011588b3_Images/5c1edaeaafeeef00011588b3_Image_24.jpeg,did not like,4.106391878,,,,,,,,,,,,,,
,,,,,,,space,0.568,NAN,,NAN,,0,26,26,26,1,27,Alex,Rej,Participant_Images/5c1edaeaafeeef00011588b3/5c1edaeaafeeef00011588b3_Images/5c1edaeaafeeef00011588b3_Image_13.jpeg,did not like,3.799433026,,,,,,,,,,,,,,
,,,,,,,space,0.675,NAN,,NAN,,0,27,27,27,1,28,Alex,Rej,Participant_Images/5c1edaeaafeeef00011588b3/5c1edaeaafeeef00011588b3_Images/5c1edaeaafeeef00011588b3_Image_12.jpeg,did not like,5.246980764,,,,,,,,,,,,,,
,,,,,,,space,0.746,NAN,,NAN,,0,28,28,28,1,29,Alex,Rej,Participant_Images/5c1edaeaafeeef00011588b3/5c1edaeaafeeef00011588b3_Images/5c1edaeaafeeef00011588b3_Image_6.jpeg,did not like,3.30081769,,,,,,,,,,,,,,
,,,,,,,,,,,,,,,,,,,,,,,,s,1,space,0.551,0,0,0,0,1,1.289,h,2.061,,
,,,,,,,,,4,,6,,0,29,29,29,1,30,Alex,Rej,Participant_Images/5c1edaeaafeeef00011588b3/5c1edaeaafeeef00011588b3_Images/5c1edaeaafeeef00011588b3_Image_30.jpeg,liked,1.661473164,,,,,,,,,,,,,,
,,,,,space,1.604,space,0.735,NAN,,NAN,,0,30,30,30,1,31,Taylor,Acc,Participant_Images/5c1edaeaafeeef00011588b3/5c1edaeaafeeef00011588b3_Images/5c1edaeaafeeef00011588b3_Image_7.jpeg,liked,3.613205605,,,,,,,,,,,,,,
,,,,,,,space,0.651,NAN,,NAN,,0,31,31,31,1,32,Taylor,Acc,Participant_Images/5c1edaeaafeeef00011588b3/5c1edaeaafeeef00011588b3_Images/5c1edaeaafeeef00011588b3_Image_8.jpeg,did not like,4.988446431,,,,,,,,,,,,,,
,,,,,,,space,0.661,NAN,,NAN,,0,32,32,32,1,33,Taylor,Acc,Participant_Images/5c1edaeaafeeef00011588b3/5c1edaeaafeeef00011588b3_Images/5c1edaeaafeeef00011588b3_Image_21.jpeg,liked,3.470791822,,,,,,,,,,,,,,
,,,,,,,space,0.67,NAN,,NAN,,0,33,33,33,1,34,Taylor,Acc,Participant_Images/5c1edaeaafeeef00011588b3/5c1edaeaafeeef00011588b3_Images/5c1edaeaafeeef00011588b3_Image_4.jpeg,liked,3.820572462,,,,,,,,,,,,,,
,,,,,,,,,,,,,,,,,,,,,,,,c,0,space,0.65,0,0,0,0,1,1.101,,,,
,,,,,,,,,NAN,,NAN,,0,34,34,34,1,35,Taylor,Acc,Participant_Images/5c1edaeaafeeef00011588b3/5c1edaeaafeeef00011588b3_Images/5c1edaeaafeeef00011588b3_Image_6.jpeg,liked,2.455989137,,,,,,,,,,,,,,
,,,,,,,space,0.657,NAN,,NAN,,0,35,35,35,1,36,Taylor,Acc,Participant_Images/5c1edaeaafeeef00011588b3/5c1edaeaafeeef00011588b3_Images/5c1edaeaafeeef00011588b3_Image_2.jpeg,liked,3.79605092,,,,,,,,,,,,,,
,,,,,,,space,0.71,NAN,,NAN,,0,36,36,36,1,37,Taylor,Acc,Participant_Images/5c1edaeaafeeef00011588b3/5c1edaeaafeeef00011588b3_Images/5c1edaeaafeeef00011588b3_Image_3.jpeg,liked,3.562416326,,,,,,,,,,,,,,
,,,,,,,space,0.87,NAN,,NAN,,0,37,37,37,1,38,Taylor,Acc,Participant_Images/5c1edaeaafeeef00011588b3/5c1edaeaafeeef00011588b3_Images/5c1edaeaafeeef00011588b3_Image_16.jpeg,liked,2.843822497,,,,,,,,,,,,,,
,,,,,,,space,0.604,NAN,,NAN,,0,38,38,38,1,39,Taylor,Acc,Participant_Images/5c1edaeaafeeef00011588b3/5c1edaeaafeeef00011588b3_Images/5c1edaeaafeeef00011588b3_Image_13.jpeg,liked,3.546495948,,,,,,,,,,,,,,
,,,,,,,,,,,,,,,,,,,,,,,,s,1,space,0.495,0,0,0,0,1,1.461,l,1.468,,
,,,,,,,,,NAN,,NAN,,0,39,39,39,1,40,Taylor,Acc,Participant_Images/5c1edaeaafeeef00011588b3/5c1edaeaafeeef00011588b3_Images/5c1edaeaafeeef00011588b3_Image_30.jpeg,did not like,1.672012706,,,,,,,,,,,,,,
,,,,,,,space,1.104,NAN,,NAN,,0,40,40,40,1,41,Taylor,Acc,Participant_Images/5c1edaeaafeeef00011588b3/5c1edaeaafeeef00011588b3_Images/5c1edaeaafeeef00011588b3_Image_29.jpeg,liked,4.942172136,,,,,,,,,,,,,,
,,,,,,,space,0.685,NAN,,NAN,,0,41,41,41,1,42,Taylor,Acc,Participant_Images/5c1edaeaafeeef00011588b3/5c1edaeaafeeef00011588b3_Images/5c1edaeaafeeef00011588b3_Image_27.jpeg,liked,2.50187214,,,,,,,,,,,,,,
,,,,,,,space,0.658,NAN,,NAN,,0,42,42,42,1,43,Taylor,Acc,Participant_Images/5c1edaeaafeeef00011588b3/5c1edaeaafeeef00011588b3_Images/5c1edaeaafeeef00011588b3_Image_10.jpeg,did not like,2.071164779,,,,,,,,,,,,,,
,,,,,,,space,0.608,NAN,,NAN,,0,43,43,43,1,44,Taylor,Acc,Participant_Images/5c1edaeaafeeef00011588b3/5c1edaeaafeeef00011588b3_Images/5c1edaeaafeeef00011588b3_Image_5.jpeg,liked,5.336503566,,,,,,,,,,,,,,
,,,,,,,,,,,,,,,,,,,,,,,,s,1,space,0.631,0,0,0,0,1,1.378,h,0.712,,
,,,,,,,,,NAN,,NAN,,0,44,44,44,1,45,Taylor,Acc,Participant_Images/5c1edaeaafeeef00011588b3/5c1edaeaafeeef00011588b3_Images/5c1edaeaafeeef00011588b3_Image_12.jpeg,liked,2.642157193,,,,,,,,,,,,,,
,,,,,,,space,0.586,NAN,,NAN,,0,45,45,45,1,46,Taylor,Acc,Participant_Images/5c1edaeaafeeef00011588b3/5c1edaeaafeeef00011588b3_Images/5c1edaeaafeeef00011588b3_Image_28.jpeg,did not like,4.456234322,,,,,,,,,,,,,,
,,,,,,,space,0.631,NAN,,NAN,,0,46,46,46,1,47,Taylor,Acc,Participant_Images/5c1edaeaafeeef00011588b3/5c1edaeaafeeef00011588b3_Images/5c1edaeaafeeef00011588b3_Image_26.jpeg,liked,4.438512181,,,,,,,,,,,,,,
,,,,,,,space,0.822,NAN,,NAN,,0,47,47,47,1,48,Taylor,Acc,Participant_Images/5c1edaeaafeeef00011588b3/5c1edaeaafeeef00011588b3_Images/5c1edaeaafeeef00011588b3_Image_17.jpeg,did not like,2.682944783,,,,,,,,,,,,,,
,,,,,,,space,0.687,NAN,,NAN,,0,48,48,48,1,49,Taylor,Acc,Participant_Images/5c1edaeaafeeef00011588b3/5c1edaeaafeeef00011588b3_Images/5c1edaeaafeeef00011588b3_Image_1.jpeg,liked,4.51984296,,,,,,,,,,,,,,
,,,,,,,,,,,,,,,,,,,,,,,,s,1,space,0.554,0,0,0,0,1,0.901,h,0.619,,
,,,,,,,,,NAN,,NAN,,0,49,49,49,1,50,Taylor,Acc,Participant_Images/5c1edaeaafeeef00011588b3/5c1edaeaafeeef00011588b3_Images/5c1edaeaafeeef00011588b3_Image_22.jpeg,liked,3.195382774,,,,,,,,,,,,,,
,,,,,,,space,1.233,NAN,,NAN,,0,50,50,50,1,51,Taylor,Acc,Participant_Images/5c1edaeaafeeef00011588b3/5c1edaeaafeeef00011588b3_Images/5c1edaeaafeeef00011588b3_Image_18.jpeg,did not like,1.779333479,,,,,,,,,,,,,,
,,,,,,,space,0.473,NAN,,NAN,,0,51,51,51,1,52,Taylor,Acc,Participant_Images/5c1edaeaafeeef00011588b3/5c1edaeaafeeef00011588b3_Images/5c1edaeaafeeef00011588b3_Image_19.jpeg,did not like,4.312468682,,,,,,,,,,,,,,
,,,,,,,space,0.72,NAN,,NAN,,0,52,52,52,1,53,Taylor,Acc,Participant_Images/5c1edaeaafeeef00011588b3/5c1edaeaafeeef00011588b3_Images/5c1edaeaafeeef00011588b3_Image_20.jpeg,did not like,4.940433059,,,,,,,,,,,,,,
,,,,,,,space,0.69,NAN,,NAN,,0,53,53,53,1,54,Taylor,Acc,Participant_Images/5c1edaeaafeeef00011588b3/5c1edaeaafeeef00011588b3_Images/5c1edaeaafeeef00011588b3_Image_15.jpeg,liked,2.7105123,,,,,,,,,,,,,,
,,,,,,,,,,,,,,,,,,,,,,,,s,1,space,0.659,0,0,0,0,1,1.144,l,0.584,,
,,,,,,,,,NAN,,NAN,,0,54,54,54,1,55,Taylor,Acc,Participant_Images/5c1edaeaafeeef00011588b3/5c1edaeaafeeef00011588b3_Images/5c1edaeaafeeef00011588b3_Image_25.jpeg,did not like,3.602308302,,,,,,,,,,,,,,
,,,,,,,space,0.588,NAN,,NAN,,0,55,55,55,1,56,Taylor,Acc,Participant_Images/5c1edaeaafeeef00011588b3/5c1edaeaafeeef00011588b3_Images/5c1edaeaafeeef00011588b3_Image_14.jpeg,liked,4.106391878,,,,,,,,,,,,,,
,,,,,,,space,0.559,NAN,,NAN,,0,56,56,56,1,57,Taylor,Acc,Participant_Images/5c1edaeaafeeef00011588b3/5c1edaeaafeeef00011588b3_Images/5c1edaeaafeeef00011588b3_Image_9.jpeg,liked,3.799433026,,,,,,,,,,,,,,
,,,,,,,space,0.635,NAN,,NAN,,0,57,57,57,1,58,Taylor,Acc,Participant_Images/5c1edaeaafeeef00011588b3/5c1edaeaafeeef00011588b3_Images/5c1edaeaafeeef00011588b3_Image_24.jpeg,liked,5.246980764,,,,,,,,,,,,,,
,,,,,,,space,0.618,NAN,,NAN,,0,58,58,58,1,59,Taylor,Acc,Participant_Images/5c1edaeaafeeef00011588b3/5c1edaeaafeeef00011588b3_Images/5c1edaeaafeeef00011588b3_Image_11.jpeg,liked,3.30081769,,,,,,,,,,,,,,
,,,,,,,,,,,,,,,,,,,,,,,,s,1,space,1.143,0,0,0,0,1,1.161,l,1.321,,
,,,,,,,,,5,,8,,0,59,59,59,1,60,Taylor,Acc,Participant_Images/5c1edaeaafeeef00011588b3/5c1edaeaafeeef00011588b3_Images/5c1edaeaafeeef00011588b3_Image_23.jpeg,liked,1.661473164,,,,,,,,,,,,,,
,,,,,space,1.16,space,0.556,NAN,,NAN,,0,60,60,60,1,61,Riley,Acc,Participant_Images/5c1edaeaafeeef00011588b3/5c1edaeaafeeef00011588b3_Images/5c1edaeaafeeef00011588b3_Image_12.jpeg,did not like,3.613205605,,,,,,,,,,,,,,
,,,,,,,space,0.528,NAN,,NAN,,0,61,61,61,1,62,Riley,Acc,Participant_Images/5c1edaeaafeeef00011588b3/5c1edaeaafeeef00011588b3_Images/5c1edaeaafeeef00011588b3_Image_15.jpeg,liked,4.988446431,,,,,,,,,,,,,,
,,,,,,,space,0.529,NAN,,NAN,,0,62,62,62,1,63,Riley,Acc,Participant_Images/5c1edaeaafeeef00011588b3/5c1edaeaafeeef00011588b3_Images/5c1edaeaafeeef00011588b3_Image_26.jpeg,did not like,3.470791822,,,,,,,,,,,,,,
,,,,,,,space,1.187,NAN,,NAN,,0,63,63,63,1,64,Riley,Acc,Participant_Images/5c1edaeaafeeef00011588b3/5c1edaeaafeeef00011588b3_Images/5c1edaeaafeeef00011588b3_Image_22.jpeg,did not like,3.820572462,,,,,,,,,,,,,,
,,,,,,,,,,,,,,,,,,,,,,,,s,1,space,0.651,0,0,0,0,1,1.175,h,0.464,,
,,,,,,,,,NAN,,NAN,,0,64,64,64,1,65,Riley,Acc,Participant_Images/5c1edaeaafeeef00011588b3/5c1edaeaafeeef00011588b3_Images/5c1edaeaafeeef00011588b3_Image_28.jpeg,did not like,2.455989137,,,,,,,,,,,,,,
,,,,,,,space,0.785,NAN,,NAN,,0,65,65,65,1,66,Riley,Acc,Participant_Images/5c1edaeaafeeef00011588b3/5c1edaeaafeeef00011588b3_Images/5c1edaeaafeeef00011588b3_Image_19.jpeg,liked,3.79605092,,,,,,,,,,,,,,
,,,,,,,space,0.584,NAN,,NAN,,0,66,66,66,1,67,Riley,Acc,Participant_Images/5c1edaeaafeeef00011588b3/5c1edaeaafeeef00011588b3_Images/5c1edaeaafeeef00011588b3_Image_3.jpeg,did not like,3.562416326,,,,,,,,,,,,,,
,,,,,,,space,0.622,NAN,,NAN,,0,67,67,67,1,68,Riley,Acc,Participant_Images/5c1edaeaafeeef00011588b3/5c1edaeaafeeef00011588b3_Images/5c1edaeaafeeef00011588b3_Image_11.jpeg,did not like,2.843822497,,,,,,,,,,,,,,
,,,,,,,space,0.595,NAN,,NAN,,0,68,68,68,1,69,Riley,Acc,Participant_Images/5c1edaeaafeeef00011588b3/5c1edaeaafeeef00011588b3_Images/5c1edaeaafeeef00011588b3_Image_10.jpeg,liked,3.546495948,,,,,,,,,,,,,,
,,,,,,,,,,,,,,,,,,,,,,,,s,1,space,0.592,0,0,0,0,1,1.071,l,0.533,,
,,,,,,,,,NAN,,NAN,,0,69,69,69,1,70,Riley,Acc,Participant_Images/5c1edaeaafeeef00011588b3/5c1edaeaafeeef00011588b3_Images/5c1edaeaafeeef00011588b3_Image_30.jpeg,liked,1.672012706,,,,,,,,,,,,,,
,,,,,,,space,0.46,NAN,,NAN,,0,70,70,70,1,71,Riley,Acc,Participant_Images/5c1edaeaafeeef00011588b3/5c1edaeaafeeef00011588b3_Images/5c1edaeaafeeef00011588b3_Image_23.jpeg,liked,4.942172136,,,,,,,,,,,,,,
,,,,,,,space,0.553,NAN,,NAN,,0,71,71,71,1,72,Riley,Acc,Participant_Images/5c1edaeaafeeef00011588b3/5c1edaeaafeeef00011588b3_Images/5c1edaeaafeeef00011588b3_Image_18.jpeg,liked,2.50187214,,,,,,,,,,,,,,
,,,,,,,space,0.571,NAN,,NAN,,0,72,72,72,1,73,Riley,Acc,Participant_Images/5c1edaeaafeeef00011588b3/5c1edaeaafeeef00011588b3_Images/5c1edaeaafeeef00011588b3_Image_6.jpeg,liked,2.071164779,,,,,,,,,,,,,,
,,,,,,,space,0.991,NAN,,NAN,,0,73,73,73,1,74,Riley,Acc,Participant_Images/5c1edaeaafeeef00011588b3/5c1edaeaafeeef00011588b3_Images/5c1edaeaafeeef00011588b3_Image_20.jpeg,did not like,5.336503566,,,,,,,,,,,,,,
,,,,,,,,,,,,,,,,,,,,,,,,s,1,space,0.99,0,0,0,0,1,0.987,l,1.379,,
,,,,,,,,,NAN,,NAN,,0,74,74,74,1,75,Riley,Acc,Participant_Images/5c1edaeaafeeef00011588b3/5c1edaeaafeeef00011588b3_Images/5c1edaeaafeeef00011588b3_Image_29.jpeg,liked,2.642157193,,,,,,,,,,,,,,
,,,,,,,space,0.851,NAN,,NAN,,0,75,75,75,1,76,Riley,Acc,Participant_Images/5c1edaeaafeeef00011588b3/5c1edaeaafeeef00011588b3_Images/5c1edaeaafeeef00011588b3_Image_21.jpeg,liked,4.456234322,,,,,,,,,,,,,,
,,,,,,,space,0.942,NAN,,NAN,,0,76,76,76,1,77,Riley,Acc,Participant_Images/5c1edaeaafeeef00011588b3/5c1edaeaafeeef00011588b3_Images/5c1edaeaafeeef00011588b3_Image_17.jpeg,liked,4.438512181,,,,,,,,,,,,,,
,,,,,,,space,0.854,NAN,,NAN,,0,77,77,77,1,78,Riley,Acc,Participant_Images/5c1edaeaafeeef00011588b3/5c1edaeaafeeef00011588b3_Images/5c1edaeaafeeef00011588b3_Image_4.jpeg,liked,2.682944783,,,,,,,,,,,,,,
,,,,,,,space,0.687,NAN,,NAN,,0,78,78,78,1,79,Riley,Acc,Participant_Images/5c1edaeaafeeef00011588b3/5c1edaeaafeeef00011588b3_Images/5c1edaeaafeeef00011588b3_Image_1.jpeg,liked,4.51984296,,,,,,,,,,,,,,
,,,,,,,,,,,,,,,,,,,,,,,,c,0,space,0.943,0,0,0,0,1,1.448,,,,
,,,,,,,,,NAN,,NAN,,0,79,79,79,1,80,Riley,Acc,Participant_Images/5c1edaeaafeeef00011588b3/5c1edaeaafeeef00011588b3_Images/5c1edaeaafeeef00011588b3_Image_27.jpeg,liked,3.195382774,,,,,,,,,,,,,,
,,,,,,,space,0.674,NAN,,NAN,,0,80,80,80,1,81,Riley,Acc,Participant_Images/5c1edaeaafeeef00011588b3/5c1edaeaafeeef00011588b3_Images/5c1edaeaafeeef00011588b3_Image_7.jpeg,liked,1.779333479,,,,,,,,,,,,,,
,,,,,,,space,0.609,NAN,,NAN,,0,81,81,81,1,82,Riley,Acc,Participant_Images/5c1edaeaafeeef00011588b3/5c1edaeaafeeef00011588b3_Images/5c1edaeaafeeef00011588b3_Image_2.jpeg,did not like,4.312468682,,,,,,,,,,,,,,
,,,,,,,space,0.677,NAN,,NAN,,0,82,82,82,1,83,Riley,Acc,Participant_Images/5c1edaeaafeeef00011588b3/5c1edaeaafeeef00011588b3_Images/5c1edaeaafeeef00011588b3_Image_13.jpeg,liked,4.940433059,,,,,,,,,,,,,,
,,,,,,,space,0.46,NAN,,NAN,,0,83,83,83,1,84,Riley,Acc,Participant_Images/5c1edaeaafeeef00011588b3/5c1edaeaafeeef00011588b3_Images/5c1edaeaafeeef00011588b3_Image_8.jpeg,liked,2.7105123,,,,,,,,,,,,,,
,,,,,,,,,,,,,,,,,,,,,,,,s,1,space,0.94,0,0,0,0,1,1.136,h,0.511,,
,,,,,,,,,NAN,,NAN,,0,84,84,84,1,85,Riley,Acc,Participant_Images/5c1edaeaafeeef00011588b3/5c1edaeaafeeef00011588b3_Images/5c1edaeaafeeef00011588b3_Image_14.jpeg,liked,3.602308302,,,,,,,,,,,,,,
,,,,,,,space,0.908,NAN,,NAN,,0,85,85,85,1,86,Riley,Acc,Participant_Images/5c1edaeaafeeef00011588b3/5c1edaeaafeeef00011588b3_Images/5c1edaeaafeeef00011588b3_Image_9.jpeg,liked,4.106391878,,,,,,,,,,,,,,
,,,,,,,space,0.686,NAN,,NAN,,0,86,86,86,1,87,Riley,Acc,Participant_Images/5c1edaeaafeeef00011588b3/5c1edaeaafeeef00011588b3_Images/5c1edaeaafeeef00011588b3_Image_5.jpeg,liked,3.799433026,,,,,,,,,,,,,,
,,,,,,,space,0.659,NAN,,NAN,,0,87,87,87,1,88,Riley,Acc,Participant_Images/5c1edaeaafeeef00011588b3/5c1edaeaafeeef00011588b3_Images/5c1edaeaafeeef00011588b3_Image_16.jpeg,did not like,5.246980764,,,,,,,,,,,,,,
,,,,,,,space,0.659,NAN,,NAN,,0,88,88,88,1,89,Riley,Acc,Participant_Images/5c1edaeaafeeef00011588b3/5c1edaeaafeeef00011588b3_Images/5c1edaeaafeeef00011588b3_Image_24.jpeg,liked,3.30081769,,,,,,,,,,,,,,
,,,,,,,,,,,,,,,,,,,,,,,,s,1,space,1.074,0,0,0,0,1,0.985,h,2.242,,
,,,,,,,,,3,,7,,0,89,89,89,1,90,Riley,Acc,Participant_Images/5c1edaeaafeeef00011588b3/5c1edaeaafeeef00011588b3_Images/5c1edaeaafeeef00011588b3_Image_25.jpeg,liked,1.661473164,,,,,,,,,,,,,,
,,,,,space,2.203,space,0.826,NAN,,NAN,,0,90,90,90,1,91,Sam,Rej,Participant_Images/5c1edaeaafeeef00011588b3/5c1edaeaafeeef00011588b3_Images/5c1edaeaafeeef00011588b3_Image_28.jpeg,did not like,3.613205605,,,,,,,,,,,,,,
,,,,,,,space,0.633,NAN,,NAN,,0,91,91,91,1,92,Sam,Rej,Participant_Images/5c1edaeaafeeef00011588b3/5c1edaeaafeeef00011588b3_Images/5c1edaeaafeeef00011588b3_Image_30.jpeg,did not like,4.988446431,,,,,,,,,,,,,,
,,,,,,,space,0.694,NAN,,NAN,,0,92,92,92,1,93,Sam,Rej,Participant_Images/5c1edaeaafeeef00011588b3/5c1edaeaafeeef00011588b3_Images/5c1edaeaafeeef00011588b3_Image_22.jpeg,liked,3.470791822,,,,,,,,,,,,,,
,,,,,,,space,0.495,NAN,,NAN,,0,93,93,93,1,94,Sam,Rej,Participant_Images/5c1edaeaafeeef00011588b3/5c1edaeaafeeef00011588b3_Images/5c1edaeaafeeef00011588b3_Image_24.jpeg,liked,3.820572462,,,,,,,,,,,,,,
,,,,,,,,,,,,,,,,,,,,,,,,s,1,space,0.715,0,0,0,0,1,1.098,l,1.355,,
,,,,,,,,,NAN,,NAN,,0,94,94,94,1,95,Sam,Rej,Participant_Images/5c1edaeaafeeef00011588b3/5c1edaeaafeeef00011588b3_Images/5c1edaeaafeeef00011588b3_Image_5.jpeg,did not like,2.455989137,,,,,,,,,,,,,,
,,,,,,,space,0.728,NAN,,NAN,,0,95,95,95,1,96,Sam,Rej,Participant_Images/5c1edaeaafeeef00011588b3/5c1edaeaafeeef00011588b3_Images/5c1edaeaafeeef00011588b3_Image_1.jpeg,did not like,3.79605092,,,,,,,,,,,,,,
,,,,,,,space,0.721,NAN,,NAN,,0,96,96,96,1,97,Sam,Rej,Participant_Images/5c1edaeaafeeef00011588b3/5c1edaeaafeeef00011588b3_Images/5c1edaeaafeeef00011588b3_Image_7.jpeg,liked,3.562416326,,,,,,,,,,,,,,
,,,,,,,space,0.648,NAN,,NAN,,0,97,97,97,1,98,Sam,Rej,Participant_Images/5c1edaeaafeeef00011588b3/5c1edaeaafeeef00011588b3_Images/5c1edaeaafeeef00011588b3_Image_18.jpeg,did not like,2.843822497,,,,,,,,,,,,,,
,,,,,,,space,0.474,NAN,,NAN,,0,98,98,98,1,99,Sam,Rej,Participant_Images/5c1edaeaafeeef00011588b3/5c1edaeaafeeef00011588b3_Images/5c1edaeaafeeef00011588b3_Image_16.jpeg,did not like,3.546495948,,,,,,,,,,,,,,
,,,,,,,,,,,,,,,,,,,,,,,,c,0,space,1.485,0,0,0,0,1,1.073,,,,
,,,,,,,,,NAN,,NAN,,0,99,99,99,1,100,Sam,Rej,Participant_Images/5c1edaeaafeeef00011588b3/5c1edaeaafeeef00011588b3_Images/5c1edaeaafeeef00011588b3_Image_25.jpeg,did not like,1.672012706,,,,,,,,,,,,,,
,,,,,,,space,0.543,NAN,,NAN,,0,100,100,100,1,101,Sam,Rej,Participant_Images/5c1edaeaafeeef00011588b3/5c1edaeaafeeef00011588b3_Images/5c1edaeaafeeef00011588b3_Image_21.jpeg,did not like,4.942172136,,,,,,,,,,,,,,
,,,,,,,space,0.553,NAN,,NAN,,0,101,101,101,1,102,Sam,Rej,Participant_Images/5c1edaeaafeeef00011588b3/5c1edaeaafeeef00011588b3_Images/5c1edaeaafeeef00011588b3_Image_6.jpeg,did not like,2.50187214,,,,,,,,,,,,,,
,,,,,,,space,0.601,NAN,,NAN,,0,102,102,102,1,103,Sam,Rej,Participant_Images/5c1edaeaafeeef00011588b3/5c1edaeaafeeef00011588b3_Images/5c1edaeaafeeef00011588b3_Image_8.jpeg,did not like,2.071164779,,,,,,,,,,,,,,
,,,,,,,space,0.577,NAN,,NAN,,0,103,103,103,1,104,Sam,Rej,Participant_Images/5c1edaeaafeeef00011588b3/5c1edaeaafeeef00011588b3_Images/5c1edaeaafeeef00011588b3_Image_27.jpeg,liked,5.336503566,,,,,,,,,,,,,,
,,,,,,,,,,,,,,,,,,,,,,,,s,1,space,0.502,0,0,0,0,1,1.107,h,0.495,,
,,,,,,,,,NAN,,NAN,,0,104,104,104,1,105,Sam,Rej,Participant_Images/5c1edaeaafeeef00011588b3/5c1edaeaafeeef00011588b3_Images/5c1edaeaafeeef00011588b3_Image_23.jpeg,liked,2.642157193,,,,,,,,,,,,,,
,,,,,,,space,0.593,NAN,,NAN,,0,105,105,105,1,106,Sam,Rej,Participant_Images/5c1edaeaafeeef00011588b3/5c1edaeaafeeef00011588b3_Images/5c1edaeaafeeef00011588b3_Image_26.jpeg,liked,4.456234322,,,,,,,,,,,,,,
,,,,,,,space,0.618,NAN,,NAN,,0,106,106,106,1,107,Sam,Rej,Participant_Images/5c1edaeaafeeef00011588b3/5c1edaeaafeeef00011588b3_Images/5c1edaeaafeeef00011588b3_Image_13.jpeg,liked,4.438512181,,,,,,,,,,,,,,
,,,,,,,space,0.945,NAN,,NAN,,0,107,107,107,1,108,Sam,Rej,Participant_Images/5c1edaeaafeeef00011588b3/5c1edaeaafeeef00011588b3_Images/5c1edaeaafeeef00011588b3_Image_12.jpeg,did not like,2.682944783,,,,,,,,,,,,,,
,,,,,,,space,0.727,NAN,,NAN,,0,108,108,108,1,109,Sam,Rej,Participant_Images/5c1edaeaafeeef00011588b3/5c1edaeaafeeef00011588b3_Images/5c1edaeaafeeef00011588b3_Image_29.jpeg,did not like,4.51984296,,,,,,,,,,,,,,
,,,,,,,,,,,,,,,,,,,,,,,,s,1,space,0.584,0,0,0,0,1,1.393,l,0.527,,
,,,,,,,,,NAN,,NAN,,0,109,109,109,1,110,Sam,Rej,Participant_Images/5c1edaeaafeeef00011588b3/5c1edaeaafeeef00011588b3_Images/5c1edaeaafeeef00011588b3_Image_9.jpeg,did not like,3.195382774,,,,,,,,,,,,,,
,,,,,,,space,0.793,NAN,,NAN,,0,110,110,110,1,111,Sam,Rej,Participant_Images/5c1edaeaafeeef00011588b3/5c1edaeaafeeef00011588b3_Images/5c1edaeaafeeef00011588b3_Image_19.jpeg,did not like,1.779333479,,,,,,,,,,,,,,
,,,,,,,space,0.727,NAN,,NAN,,0,111,111,111,1,112,Sam,Rej,Participant_Images/5c1edaeaafeeef00011588b3/5c1edaeaafeeef00011588b3_Images/5c1edaeaafeeef00011588b3_Image_17.jpeg,did not like,4.312468682,,,,,,,,,,,,,,
,,,,,,,space,0.685,NAN,,NAN,,0,112,112,112,1,113,Sam,Rej,Participant_Images/5c1edaeaafeeef00011588b3/5c1edaeaafeeef00011588b3_Images/5c1edaeaafeeef00011588b3_Image_11.jpeg,did not like,4.940433059,,,,,,,,,,,,,,
,,,,,,,space,0.594,NAN,,NAN,,0,113,113,113,1,114,Sam,Rej,Participant_Images/5c1edaeaafeeef00011588b3/5c1edaeaafeeef00011588b3_Images/5c1edaeaafeeef00011588b3_Image_15.jpeg,did not like,2.7105123,,,,,,,,,,,,,,
,,,,,,,,,,,,,,,,,,,,,,,,s,1,space,1.494,0,0,0,0,1,1.454,h,0.646,,
,,,,,,,,,NAN,,NAN,,0,114,114,114,1,115,Sam,Rej,Participant_Images/5c1edaeaafeeef00011588b3/5c1edaeaafeeef00011588b3_Images/5c1edaeaafeeef00011588b3_Image_4.jpeg,liked,3.602308302,,,,,,,,,,,,,,
,,,,,,,space,0.691,NAN,,NAN,,0,115,115,115,1,116,Sam,Rej,Participant_Images/5c1edaeaafeeef00011588b3/5c1edaeaafeeef00011588b3_Images/5c1edaeaafeeef00011588b3_Image_2.jpeg,did not like,4.106391878,,,,,,,,,,,,,,
,,,,,,,space,0.733,NAN,,NAN,,0,116,116,116,1,117,Sam,Rej,Participant_Images/5c1edaeaafeeef00011588b3/5c1edaeaafeeef00011588b3_Images/5c1edaeaafeeef00011588b3_Image_14.jpeg,liked,3.799433026,,,,,,,,,,,,,,
,,,,,,,space,1.156,NAN,,NAN,,0,117,117,117,1,118,Sam,Rej,Participant_Images/5c1edaeaafeeef00011588b3/5c1edaeaafeeef00011588b3_Images/5c1edaeaafeeef00011588b3_Image_10.jpeg,did not like,5.246980764,,,,,,,,,,,,,,
,,,,,,,space,0.96,NAN,,NAN,,0,118,118,118,1,119,Sam,Rej,Participant_Images/5c1edaeaafeeef00011588b3/5c1edaeaafeeef00011588b3_Images/5c1edaeaafeeef00011588b3_Image_3.jpeg,did not like,3.30081769,,,,,,,,,,,,,,
,,,,,,,,,,,,,,,,,,,,,,,,s,1,space,0.936,0,0,0,0,1,1.095,l,0.569,,
,,,,,,,,,3,,6,,0,119,119,119,1,120,Sam,Rej,Participant_Images/5c1edaeaafeeef00011588b3/5c1edaeaafeeef00011588b3_Images/5c1edaeaafeeef00011588b3_Image_20.jpeg,did not like,1.661473164,,,,,,,,,,,,,,
,,,,,space,17.651,space,0.589,NAN,,NAN,,0,120,120,120,1,121,Charlie,Neutral,Participant_Images/5c1edaeaafeeef00011588b3/5c1edaeaafeeef00011588b3_Images/5c1edaeaafeeef00011588b3_Image_22.jpeg,did not like,3.613205605,,,,,,,,,,,,,,
,,,,,,,space,0.68,NAN,,NAN,,0,121,121,121,1,122,Charlie,Neutral,Participant_Images/5c1edaeaafeeef00011588b3/5c1edaeaafeeef00011588b3_Images/5c1edaeaafeeef00011588b3_Image_15.jpeg,did not like,4.988446431,,,,,,,,,,,,,,
,,,,,,,space,0.707,NAN,,NAN,,0,122,122,122,1,123,Charlie,Neutral,Participant_Images/5c1edaeaafeeef00011588b3/5c1edaeaafeeef00011588b3_Images/5c1edaeaafeeef00011588b3_Image_28.jpeg,did not like,3.470791822,,,,,,,,,,,,,,
,,,,,,,space,1.049,NAN,,NAN,,0,123,123,123,1,124,Charlie,Neutral,Participant_Images/5c1edaeaafeeef00011588b3/5c1edaeaafeeef00011588b3_Images/5c1edaeaafeeef00011588b3_Image_19.jpeg,liked,3.820572462,,,,,,,,,,,,,,
,,,,,,,,,,,,,,,,,,,,,,,,c,0,space,0.621,0,0,0,0,1,1.85,,,,
,,,,,,,,,NAN,,NAN,,0,124,124,124,1,125,Charlie,Neutral,Participant_Images/5c1edaeaafeeef00011588b3/5c1edaeaafeeef00011588b3_Images/5c1edaeaafeeef00011588b3_Image_16.jpeg,liked,2.455989137,,,,,,,,,,,,,,
,,,,,,,space,0.597,NAN,,NAN,,0,125,125,125,1,126,Charlie,Neutral,Participant_Images/5c1edaeaafeeef00011588b3/5c1edaeaafeeef00011588b3_Images/5c1edaeaafeeef00011588b3_Image_30.jpeg,did not like,3.79605092,,,,,,,,,,,,,,
,,,,,,,space,0.989,NAN,,NAN,,0,126,126,126,1,127,Charlie,Neutral,Participant_Images/5c1edaeaafeeef00011588b3/5c1edaeaafeeef00011588b3_Images/5c1edaeaafeeef00011588b3_Image_13.jpeg,did not like,3.562416326,,,,,,,,,,,,,,
,,,,,,,space,0.795,NAN,,NAN,,0,127,127,127,1,128,Charlie,Neutral,Participant_Images/5c1edaeaafeeef00011588b3/5c1edaeaafeeef00011588b3_Images/5c1edaeaafeeef00011588b3_Image_12.jpeg,liked,2.843822497,,,,,,,,,,,,,,
,,,,,,,space,0.645,NAN,,NAN,,0,128,128,128,1,129,Charlie,Neutral,Participant_Images/5c1edaeaafeeef00011588b3/5c1edaeaafeeef00011588b3_Images/5c1edaeaafeeef00011588b3_Image_20.jpeg,liked,3.546495948,,,,,,,,,,,,,,
,,,,,,,,,,,,,,,,,,,,,,,,s,1,space,2.895,0,0,0,0,1,1.292,h,0.728,,
,,,,,,,,,NAN,,NAN,,0,129,129,129,1,130,Charlie,Neutral,Participant_Images/5c1edaeaafeeef00011588b3/5c1edaeaafeeef00011588b3_Images/5c1edaeaafeeef00011588b3_Image_11.jpeg,liked,1.672012706,,,,,,,,,,,,,,
,,,,,,,space,0.701,NAN,,NAN,,0,130,130,130,1,131,Charlie,Neutral,Participant_Images/5c1edaeaafeeef00011588b3/5c1edaeaafeeef00011588b3_Images/5c1edaeaafeeef00011588b3_Image_10.jpeg,liked,4.942172136,,,,,,,,,,,,,,
,,,,,,,space,0.671,NAN,,NAN,,0,131,131,131,1,132,Charlie,Neutral,Participant_Images/5c1edaeaafeeef00011588b3/5c1edaeaafeeef00011588b3_Images/5c1edaeaafeeef00011588b3_Image_23.jpeg,liked,2.50187214,,,,,,,,,,,,,,
,,,,,,,space,0.669,NAN,,NAN,,0,132,132,132,1,133,Charlie,Neutral,Participant_Images/5c1edaeaafeeef00011588b3/5c1edaeaafeeef00011588b3_Images/5c1edaeaafeeef00011588b3_Image_17.jpeg,liked,2.071164779,,,,,,,,,,,,,,
,,,,,,,space,0.658,NAN,,NAN,,0,133,133,133,1,134,Charlie,Neutral,Participant_Images/5c1edaeaafeeef00011588b3/5c1edaeaafeeef00011588b3_Images/5c1edaeaafeeef00011588b3_Image_9.jpeg,liked,5.336503566,,,,,,,,,,,,,,
,,,,,,,,,,,,,,,,,,,,,,,,s,1,space,2.227,0,0,0,0,1,2.847,h,1.564,,
,,,,,,,,,NAN,,NAN,,0,134,134,134,1,135,Charlie,Neutral,Participant_Images/5c1edaeaafeeef00011588b3/5c1edaeaafeeef00011588b3_Images/5c1edaeaafeeef00011588b3_Image_2.jpeg,did not like,2.642157193,,,,,,,,,,,,,,
,,,,,,,space,1.962,NAN,,NAN,,0,135,135,135,1,136,Charlie,Neutral,Participant_Images/5c1edaeaafeeef00011588b3/5c1edaeaafeeef00011588b3_Images/5c1edaeaafeeef00011588b3_Image_25.jpeg,liked,4.456234322,,,,,,,,,,,,,,
,,,,,,,space,0.719,NAN,,NAN,,0,136,136,136,1,137,Charlie,Neutral,Participant_Images/5c1edaeaafeeef00011588b3/5c1edaeaafeeef00011588b3_Images/5c1edaeaafeeef00011588b3_Image_24.jpeg,did not like,4.438512181,,,,,,,,,,,,,,
,,,,,,,space,0.994,NAN,,NAN,,0,137,137,137,1,138,Charlie,Neutral,Participant_Images/5c1edaeaafeeef00011588b3/5c1edaeaafeeef00011588b3_Images/5c1edaeaafeeef00011588b3_Image_6.jpeg,did not like,2.682944783,,,,,,,,,,,,,,
,,,,,,,space,0.968,NAN,,NAN,,0,138,138,138,1,139,Charlie,Neutral,Participant_Images/5c1edaeaafeeef00011588b3/5c1edaeaafeeef00011588b3_Images/5c1edaeaafeeef00011588b3_Image_26.jpeg,liked,4.51984296,,,,,,,,,,,,,,
,,,,,,,,,,,,,,,,,,,,,,,,c,0,space,1.551,0,0,0,0,1,1.074,,,,
,,,,,,,,,NAN,,NAN,,0,139,139,139,1,140,Charlie,Neutral,Participant_Images/5c1edaeaafeeef00011588b3/5c1edaeaafeeef00011588b3_Images/5c1edaeaafeeef00011588b3_Image_27.jpeg,liked,3.195382774,,,,,,,,,,,,,,
,,,,,,,space,0.669,NAN,,NAN,,0,140,140,140,1,141,Charlie,Neutral,Participant_Images/5c1edaeaafeeef00011588b3/5c1edaeaafeeef00011588b3_Images/5c1edaeaafeeef00011588b3_Image_5.jpeg,liked,1.779333479,,,,,,,,,,,,,,
,,,,,,,space,0.61,NAN,,NAN,,0,141,141,141,1,142,Charlie,Neutral,Participant_Images/5c1edaeaafeeef00011588b3/5c1edaeaafeeef00011588b3_Images/5c1edaeaafeeef00011588b3_Image_4.jpeg,did not like,4.312468682,,,,,,,,,,,,,,
,,,,,,,space,0.555,NAN,,NAN,,0,142,142,142,1,143,Charlie,Neutral,Participant_Images/5c1edaeaafeeef00011588b3/5c1edaeaafeeef00011588b3_Images/5c1edaeaafeeef00011588b3_Image_21.jpeg,did not like,4.940433059,,,,,,,,,,,,,,
,,,,,,,space,0.828,NAN,,NAN,,0,143,143,143,1,144,Charlie,Neutral,Participant_Images/5c1edaeaafeeef00011588b3/5c1edaeaafeeef00011588b3_Images/5c1edaeaafeeef00011588b3_Image_3.jpeg,liked,2.7105123,,,,,,,,,,,,,,
,,,,,,,,,,,,,,,,,,,,,,,,c,0,space,3.651,0,0,0,0,1,1.021,,,,
,,,,,,,,,NAN,,NAN,,0,144,144,144,1,145,Charlie,Neutral,Participant_Images/5c1edaeaafeeef00011588b3/5c1edaeaafeeef00011588b3_Images/5c1edaeaafeeef00011588b3_Image_29.jpeg,liked,3.602308302,,,,,,,,,,,,,,
,,,,,,,space,0.593,NAN,,NAN,,0,145,145,145,1,146,Charlie,Neutral,Participant_Images/5c1edaeaafeeef00011588b3/5c1edaeaafeeef00011588b3_Images/5c1edaeaafeeef00011588b3_Image_8.jpeg,did not like,4.106391878,,,,,,,,,,,,,,
,,,,,,,space,0.618,NAN,,NAN,,0,146,146,146,1,147,Charlie,Neutral,Participant_Images/5c1edaeaafeeef00011588b3/5c1edaeaafeeef00011588b3_Images/5c1edaeaafeeef00011588b3_Image_18.jpeg,did not like,3.799433026,,,,,,,,,,,,,,
,,,,,,,space,0.754,NAN,,NAN,,0,147,147,147,1,148,Charlie,Neutral,Participant_Images/5c1edaeaafeeef00011588b3/5c1edaeaafeeef00011588b3_Images/5c1edaeaafeeef00011588b3_Image_7.jpeg,did not like,5.246980764,,,,,,,,,,,,,,
,,,,,,,space,0.98,NAN,,NAN,,0,148,148,148,1,149,Charlie,Neutral,Participant_Images/5c1edaeaafeeef00011588b3/5c1edaeaafeeef00011588b3_Images/5c1edaeaafeeef00011588b3_Image_1.jpeg,did not like,3.30081769,,,,,,,,,,,,,,
,,,,,,,,,,,,,,,,,,,,,,,,s,1,space,0.673,0,0,0,0,1,2.32,h,0.514,,
,,,,,,,,,4,,6,,0,149,149,149,1,150,Charlie,Neutral,Participant_Images/5c1edaeaafeeef00011588b3/5c1edaeaafeeef00011588b3_Images/5c1edaeaafeeef00011588b3_Image_14.jpeg,did not like,1.661473164,,,,,,,,,,,,,,
,,,,,,,,,,,,,,,,,,,,,,,,,,,,,,,,,,,,space,2.583
