endwelcomescreen_keys.keys,endwelcomescreen_keys.rt,endinstructionscreen_keys.keys,endinstructionscreen_keys.rt,endpartnermatch_keys.keys,endpartnermatch_keys.rt,sharenextphoto_key.keys,sharenextphoto_key.rt,salience_rating,key_resp.keys,stress_level,stresslevel_keypress.keys,entiretaskloop.thisRepN,entiretaskloop.thisTrialN,entiretaskloop.thisN,entiretaskloop.thisIndex,entiretaskloop.ran,TrialNumber,Partner,Condition,Photos,Feedback,FeedbackWait,choice_keys.keys,playlottery,resumeafterlottery_keys.keys,resumeafterlottery_keys.rt,lotteryloop.thisRepN,lotteryloop.thisTrialN,lotteryloop.thisN,lotteryloop.thisIndex,lotteryloop.ran,end_screen_keys.keys,end_screen_keys.rt
space,4.257,,,,,,,,,,,,,,,,,,,,,,,,,,,,,,,,
,,,,,,,,,,,,,,,,,,,,,,,,,,,,,,,,,
,,space,2.97,,,,,,,,,,,,,,,,,,,,,,,,,,,,,,
,,,,space,0.8377,space,0.7975,NAN,,NAN,,0,0,0,0,1,1,Riley,Rej,Participant_Images/5d16d17119d2ed0015e21360/5d16d17119d2ed0015e21360_Images/5d16d17119d2ed0015e21360_Image_5.jpeg,did not like,3.613205605,,,,,,,,,,,
,,,,,,space,0.4176,NAN,,NAN,,0,1,1,1,1,2,Riley,Rej,Participant_Images/5d16d17119d2ed0015e21360/5d16d17119d2ed0015e21360_Images/5d16d17119d2ed0015e21360_Image_16.jpeg,did not like,4.988446431,,,,,,,,,,,
,,,,,,space,0.2486,NAN,,NAN,,0,2,2,2,1,3,Riley,Rej,Participant_Images/5d16d17119d2ed0015e21360/5d16d17119d2ed0015e21360_Images/5d16d17119d2ed0015e21360_Image_23.jpeg,did not like,3.470791822,,,,,,,,,,,
,,,,,,space,0.2529,NAN,,NAN,,0,3,3,3,1,4,Riley,Rej,Participant_Images/5d16d17119d2ed0015e21360/5d16d17119d2ed0015e21360_Images/5d16d17119d2ed0015e21360_Image_20.jpeg,did not like,3.820572462,,,,,,,,,,,
,,,,,,,,,,,,,,,,,,,,,,,,999,space,1.1666,0,0,0,0,1,,
,,,,,,,,NAN,,NAN,,0,4,4,4,1,5,Riley,Rej,Participant_Images/5d16d17119d2ed0015e21360/5d16d17119d2ed0015e21360_Images/5d16d17119d2ed0015e21360_Image_8.jpeg,liked,2.455989137,,,,,,,,,,,
,,,,,,space,0.4934,NAN,,NAN,,0,5,5,5,1,6,Riley,Rej,Participant_Images/5d16d17119d2ed0015e21360/5d16d17119d2ed0015e21360_Images/5d16d17119d2ed0015e21360_Image_25.jpeg,did not like,3.79605092,,,,,,,,,,,
,,,,,,space,0.5008,NAN,,NAN,,0,6,6,6,1,7,Riley,Rej,Participant_Images/5d16d17119d2ed0015e21360/5d16d17119d2ed0015e21360_Images/5d16d17119d2ed0015e21360_Image_18.jpeg,liked,3.562416326,,,,,,,,,,,
,,,,,,space,0.3937,NAN,,NAN,,0,7,7,7,1,8,Riley,Rej,Participant_Images/5d16d17119d2ed0015e21360/5d16d17119d2ed0015e21360_Images/5d16d17119d2ed0015e21360_Image_1.jpeg,did not like,2.843822497,,,,,,,,,,,
,,,,,,space,0.1593,NAN,,NAN,,0,8,8,8,1,9,Riley,Rej,Participant_Images/5d16d17119d2ed0015e21360/5d16d17119d2ed0015e21360_Images/5d16d17119d2ed0015e21360_Image_22.jpeg,did not like,3.546495948,,,,,,,,,,,
,,,,,,,,,,,,,,,,,,,,,,,,999,space,0.4558,0,0,0,0,1,,
,,,,,,,,NAN,,NAN,,0,9,9,9,1,10,Riley,Rej,Participant_Images/5d16d17119d2ed0015e21360/5d16d17119d2ed0015e21360_Images/5d16d17119d2ed0015e21360_Image_27.jpeg,did not like,1.672012706,,,,,,,,,,,
,,,,,,space,0.284,NAN,,NAN,,0,10,10,10,1,11,Riley,Rej,Participant_Images/5d16d17119d2ed0015e21360/5d16d17119d2ed0015e21360_Images/5d16d17119d2ed0015e21360_Image_7.jpeg,did not like,4.942172136,,,,,,,,,,,
,,,,,,space,0.1614,NAN,,NAN,,0,11,11,11,1,12,Riley,Rej,Participant_Images/5d16d17119d2ed0015e21360/5d16d17119d2ed0015e21360_Images/5d16d17119d2ed0015e21360_Image_28.jpeg,did not like,2.50187214,,,,,,,,,,,
,,,,,,space,0.0327,NAN,,NAN,,0,12,12,12,1,13,Riley,Rej,Participant_Images/5d16d17119d2ed0015e21360/5d16d17119d2ed0015e21360_Images/5d16d17119d2ed0015e21360_Image_6.jpeg,did not like,2.071164779,,,,,,,,,,,
,,,,,,space,0.487,NAN,,NAN,,0,13,13,13,1,14,Riley,Rej,Participant_Images/5d16d17119d2ed0015e21360/5d16d17119d2ed0015e21360_Images/5d16d17119d2ed0015e21360_Image_24.jpeg,liked,5.336503566,,,,,,,,,,,
,,,,,,,,,,,,,,,,,,,,,,,,999,space,0.611,0,0,0,0,1,,
,,,,,,,,NAN,,NAN,,0,14,14,14,1,15,Riley,Rej,Participant_Images/5d16d17119d2ed0015e21360/5d16d17119d2ed0015e21360_Images/5d16d17119d2ed0015e21360_Image_17.jpeg,did not like,2.642157193,,,,,,,,,,,
,,,,,,space,0.4035,NAN,,NAN,,0,15,15,15,1,16,Riley,Rej,Participant_Images/5d16d17119d2ed0015e21360/5d16d17119d2ed0015e21360_Images/5d16d17119d2ed0015e21360_Image_4.jpeg,did not like,4.456234322,,,,,,,,,,,
,,,,,,space,0.1872,NAN,,NAN,,0,16,16,16,1,17,Riley,Rej,Participant_Images/5d16d17119d2ed0015e21360/5d16d17119d2ed0015e21360_Images/5d16d17119d2ed0015e21360_Image_12.jpeg,liked,4.438512181,,,,,,,,,,,
,,,,,,space,0.5754,NAN,,NAN,,0,17,17,17,1,18,Riley,Rej,Participant_Images/5d16d17119d2ed0015e21360/5d16d17119d2ed0015e21360_Images/5d16d17119d2ed0015e21360_Image_9.jpeg,liked,2.682944783,,,,,,,,,,,
,,,,,,space,0.2507,NAN,,NAN,,0,18,18,18,1,19,Riley,Rej,Participant_Images/5d16d17119d2ed0015e21360/5d16d17119d2ed0015e21360_Images/5d16d17119d2ed0015e21360_Image_19.jpeg,did not like,4.51984296,,,,,,,,,,,
,,,,,,,,,,,,,,,,,,,,,,,,999,space,0.498,0,0,0,0,1,,
,,,,,,,,NAN,,NAN,,0,19,19,19,1,20,Riley,Rej,Participant_Images/5d16d17119d2ed0015e21360/5d16d17119d2ed0015e21360_Images/5d16d17119d2ed0015e21360_Image_13.jpeg,did not like,3.195382774,,,,,,,,,,,
,,,,,,space,0.102,NAN,,NAN,,0,20,20,20,1,21,Riley,Rej,Participant_Images/5d16d17119d2ed0015e21360/5d16d17119d2ed0015e21360_Images/5d16d17119d2ed0015e21360_Image_15.jpeg,did not like,1.779333479,,,,,,,,,,,
,,,,,,space,0.072,NAN,,NAN,,0,21,21,21,1,22,Riley,Rej,Participant_Images/5d16d17119d2ed0015e21360/5d16d17119d2ed0015e21360_Images/5d16d17119d2ed0015e21360_Image_30.jpeg,liked,4.312468682,,,,,,,,,,,
,,,,,,space,0.211,NAN,,NAN,,0,22,22,22,1,23,Riley,Rej,Participant_Images/5d16d17119d2ed0015e21360/5d16d17119d2ed0015e21360_Images/5d16d17119d2ed0015e21360_Image_2.jpeg,did not like,4.940433059,,,,,,,,,,,
,,,,,,space,0.3728,NAN,,NAN,,0,23,23,23,1,24,Riley,Rej,Participant_Images/5d16d17119d2ed0015e21360/5d16d17119d2ed0015e21360_Images/5d16d17119d2ed0015e21360_Image_11.jpeg,liked,2.7105123,,,,,,,,,,,
,,,,,,,,,,,,,,,,,,,,,,,,999,space,0.4842,0,0,0,0,1,,
,,,,,,,,NAN,,NAN,,0,24,24,24,1,25,Riley,Rej,Participant_Images/5d16d17119d2ed0015e21360/5d16d17119d2ed0015e21360_Images/5d16d17119d2ed0015e21360_Image_3.jpeg,did not like,3.602308302,,,,,,,,,,,
,,,,,,space,0.1423,NAN,,NAN,,0,25,25,25,1,26,Riley,Rej,Participant_Images/5d16d17119d2ed0015e21360/5d16d17119d2ed0015e21360_Images/5d16d17119d2ed0015e21360_Image_14.jpeg,liked,4.106391878,,,,,,,,,,,
,,,,,,space,0.5023,NAN,,NAN,,0,26,26,26,1,27,Riley,Rej,Participant_Images/5d16d17119d2ed0015e21360/5d16d17119d2ed0015e21360_Images/5d16d17119d2ed0015e21360_Image_29.jpeg,did not like,3.799433026,,,,,,,,,,,
,,,,,,space,0.1943,NAN,,NAN,,0,27,27,27,1,28,Riley,Rej,Participant_Images/5d16d17119d2ed0015e21360/5d16d17119d2ed0015e21360_Images/5d16d17119d2ed0015e21360_Image_10.jpeg,liked,5.246980764,,,,,,,,,,,
,,,,,,space,0.1955,NAN,,NAN,,0,28,28,28,1,29,Riley,Rej,Participant_Images/5d16d17119d2ed0015e21360/5d16d17119d2ed0015e21360_Images/5d16d17119d2ed0015e21360_Image_21.jpeg,did not like,3.30081769,,,,,,,,,,,
,,,,,,,,,,,,,,,,,,,,,,,,999,space,0.3209,0,0,0,0,1,,
,,,,,,,,4,,9,,0,29,29,29,1,30,Riley,Rej,Participant_Images/5d16d17119d2ed0015e21360/5d16d17119d2ed0015e21360_Images/5d16d17119d2ed0015e21360_Image_26.jpeg,did not like,1.661473164,,,,,,,,,,,
,,,,space,0.484,space,0.0413,NAN,,NAN,,0,30,30,30,1,31,Charlie,Acc,Participant_Images/5d16d17119d2ed0015e21360/5d16d17119d2ed0015e21360_Images/5d16d17119d2ed0015e21360_Image_6.jpeg,liked,3.613205605,,,,,,,,,,,
,,,,,,space,0.0838,NAN,,NAN,,0,31,31,31,1,32,Charlie,Acc,Participant_Images/5d16d17119d2ed0015e21360/5d16d17119d2ed0015e21360_Images/5d16d17119d2ed0015e21360_Image_18.jpeg,liked,4.988446431,,,,,,,,,,,
,,,,,,space,0.0006,NAN,,NAN,,0,32,32,32,1,33,Charlie,Acc,Participant_Images/5d16d17119d2ed0015e21360/5d16d17119d2ed0015e21360_Images/5d16d17119d2ed0015e21360_Image_23.jpeg,liked,3.470791822,,,,,,,,,,,
,,,,,,space,0.2501,NAN,,NAN,,0,33,33,33,1,34,Charlie,Acc,Participant_Images/5d16d17119d2ed0015e21360/5d16d17119d2ed0015e21360_Images/5d16d17119d2ed0015e21360_Image_16.jpeg,liked,3.820572462,,,,,,,,,,,
,,,,,,,,,,,,,,,,,,,,,,,,999,space,0.2573,0,0,0,0,1,,
,,,,,,,,NAN,,NAN,,0,34,34,34,1,35,Charlie,Acc,Participant_Images/5d16d17119d2ed0015e21360/5d16d17119d2ed0015e21360_Images/5d16d17119d2ed0015e21360_Image_12.jpeg,liked,2.455989137,,,,,,,,,,,
,,,,,,space,0.4446,NAN,,NAN,,0,35,35,35,1,36,Charlie,Acc,Participant_Images/5d16d17119d2ed0015e21360/5d16d17119d2ed0015e21360_Images/5d16d17119d2ed0015e21360_Image_20.jpeg,liked,3.79605092,,,,,,,,,,,
,,,,,,space,0.2111,NAN,,NAN,,0,36,36,36,1,37,Charlie,Acc,Participant_Images/5d16d17119d2ed0015e21360/5d16d17119d2ed0015e21360_Images/5d16d17119d2ed0015e21360_Image_13.jpeg,liked,3.562416326,,,,,,,,,,,
,,,,,,space,0.3339,NAN,,NAN,,0,37,37,37,1,38,Charlie,Acc,Participant_Images/5d16d17119d2ed0015e21360/5d16d17119d2ed0015e21360_Images/5d16d17119d2ed0015e21360_Image_11.jpeg,liked,2.843822497,,,,,,,,,,,
,,,,,,space,0.4327,NAN,,NAN,,0,38,38,38,1,39,Charlie,Acc,Participant_Images/5d16d17119d2ed0015e21360/5d16d17119d2ed0015e21360_Images/5d16d17119d2ed0015e21360_Image_21.jpeg,liked,3.546495948,,,,,,,,,,,
,,,,,,,,,,,,,,,,,,,,,,,,999,space,0.0155,0,0,0,0,1,,
,,,,,,,,NAN,,NAN,,0,39,39,39,1,40,Charlie,Acc,Participant_Images/5d16d17119d2ed0015e21360/5d16d17119d2ed0015e21360_Images/5d16d17119d2ed0015e21360_Image_8.jpeg,liked,1.672012706,,,,,,,,,,,
,,,,,,space,0.0516,NAN,,NAN,,0,40,40,40,1,41,Charlie,Acc,Participant_Images/5d16d17119d2ed0015e21360/5d16d17119d2ed0015e21360_Images/5d16d17119d2ed0015e21360_Image_10.jpeg,liked,4.942172136,,,,,,,,,,,
,,,,,,space,0.0008,NAN,,NAN,,0,41,41,41,1,42,Charlie,Acc,Participant_Images/5d16d17119d2ed0015e21360/5d16d17119d2ed0015e21360_Images/5d16d17119d2ed0015e21360_Image_17.jpeg,liked,2.50187214,,,,,,,,,,,
,,,,,,space,0.1241,NAN,,NAN,,0,42,42,42,1,43,Charlie,Acc,Participant_Images/5d16d17119d2ed0015e21360/5d16d17119d2ed0015e21360_Images/5d16d17119d2ed0015e21360_Image_2.jpeg,liked,2.071164779,,,,,,,,,,,
,,,,,,space,0.0991,NAN,,NAN,,0,43,43,43,1,44,Charlie,Acc,Participant_Images/5d16d17119d2ed0015e21360/5d16d17119d2ed0015e21360_Images/5d16d17119d2ed0015e21360_Image_27.jpeg,did not like,5.336503566,,,,,,,,,,,
,,,,,,,,,,,,,,,,,,,,,,,,999,space,0.0093,0,0,0,0,1,,
,,,,,,,,NAN,,NAN,,0,44,44,44,1,45,Charlie,Acc,Participant_Images/5d16d17119d2ed0015e21360/5d16d17119d2ed0015e21360_Images/5d16d17119d2ed0015e21360_Image_22.jpeg,liked,2.642157193,,,,,,,,,,,
,,,,,,space,1.9701,NAN,,NAN,,0,45,45,45,1,46,Charlie,Acc,Participant_Images/5d16d17119d2ed0015e21360/5d16d17119d2ed0015e21360_Images/5d16d17119d2ed0015e21360_Image_24.jpeg,did not like,4.456234322,,,,,,,,,,,
,,,,,,space,0.0161,NAN,,NAN,,0,46,46,46,1,47,Charlie,Acc,Participant_Images/5d16d17119d2ed0015e21360/5d16d17119d2ed0015e21360_Images/5d16d17119d2ed0015e21360_Image_1.jpeg,did not like,4.438512181,,,,,,,,,,,
,,,,,,space,0.1416,NAN,,NAN,,0,47,47,47,1,48,Charlie,Acc,Participant_Images/5d16d17119d2ed0015e21360/5d16d17119d2ed0015e21360_Images/5d16d17119d2ed0015e21360_Image_4.jpeg,liked,2.682944783,,,,,,,,,,,
,,,,,,space,0.0359,NAN,,NAN,,0,48,48,48,1,49,Charlie,Acc,Participant_Images/5d16d17119d2ed0015e21360/5d16d17119d2ed0015e21360_Images/5d16d17119d2ed0015e21360_Image_7.jpeg,did not like,4.51984296,,,,,,,,,,,
,,,,,,,,,,,,,,,,,,,,,,,,999,space,0.2877,0,0,0,0,1,,
,,,,,,,,NAN,,NAN,,0,49,49,49,1,50,Charlie,Acc,Participant_Images/5d16d17119d2ed0015e21360/5d16d17119d2ed0015e21360_Images/5d16d17119d2ed0015e21360_Image_30.jpeg,liked,3.195382774,,,,,,,,,,,
,,,,,,space,0.511,NAN,,NAN,,0,50,50,50,1,51,Charlie,Acc,Participant_Images/5d16d17119d2ed0015e21360/5d16d17119d2ed0015e21360_Images/5d16d17119d2ed0015e21360_Image_14.jpeg,did not like,1.779333479,,,,,,,,,,,
,,,,,,space,0.2821,NAN,,NAN,,0,51,51,51,1,52,Charlie,Acc,Participant_Images/5d16d17119d2ed0015e21360/5d16d17119d2ed0015e21360_Images/5d16d17119d2ed0015e21360_Image_3.jpeg,did not like,4.312468682,,,,,,,,,,,
,,,,,,space,0.1586,NAN,,NAN,,0,52,52,52,1,53,Charlie,Acc,Participant_Images/5d16d17119d2ed0015e21360/5d16d17119d2ed0015e21360_Images/5d16d17119d2ed0015e21360_Image_25.jpeg,liked,4.940433059,,,,,,,,,,,
,,,,,,space,0.2346,NAN,,NAN,,0,53,53,53,1,54,Charlie,Acc,Participant_Images/5d16d17119d2ed0015e21360/5d16d17119d2ed0015e21360_Images/5d16d17119d2ed0015e21360_Image_26.jpeg,liked,2.7105123,,,,,,,,,,,
,,,,,,,,,,,,,,,,,,,,,,,,999,space,0.0847,0,0,0,0,1,,
,,,,,,,,NAN,,NAN,,0,54,54,54,1,55,Charlie,Acc,Participant_Images/5d16d17119d2ed0015e21360/5d16d17119d2ed0015e21360_Images/5d16d17119d2ed0015e21360_Image_19.jpeg,did not like,3.602308302,,,,,,,,,,,
,,,,,,space,0.1525,NAN,,NAN,,0,55,55,55,1,56,Charlie,Acc,Participant_Images/5d16d17119d2ed0015e21360/5d16d17119d2ed0015e21360_Images/5d16d17119d2ed0015e21360_Image_15.jpeg,liked,4.106391878,,,,,,,,,,,
,,,,,,space,0.5942,NAN,,NAN,,0,56,56,56,1,57,Charlie,Acc,Participant_Images/5d16d17119d2ed0015e21360/5d16d17119d2ed0015e21360_Images/5d16d17119d2ed0015e21360_Image_9.jpeg,did not like,3.799433026,,,,,,,,,,,
,,,,,,space,0.2161,NAN,,NAN,,0,57,57,57,1,58,Charlie,Acc,Participant_Images/5d16d17119d2ed0015e21360/5d16d17119d2ed0015e21360_Images/5d16d17119d2ed0015e21360_Image_29.jpeg,liked,5.246980764,,,,,,,,,,,
,,,,,,space,0.2591,NAN,,NAN,,0,58,58,58,1,59,Charlie,Acc,Participant_Images/5d16d17119d2ed0015e21360/5d16d17119d2ed0015e21360_Images/5d16d17119d2ed0015e21360_Image_28.jpeg,did not like,3.30081769,,,,,,,,,,,
,,,,,,,,,,,,,,,,,,,,,,,,999,space,0.2848,0,0,0,0,1,,
,,,,,,,,5,,9,,0,59,59,59,1,60,Charlie,Acc,Participant_Images/5d16d17119d2ed0015e21360/5d16d17119d2ed0015e21360_Images/5d16d17119d2ed0015e21360_Image_5.jpeg,liked,1.661473164,,,,,,,,,,,
,,,,space,6.9614,space,0.3353,NAN,,NAN,,0,60,60,60,1,61,Alex,Acc,Participant_Images/5d16d17119d2ed0015e21360/5d16d17119d2ed0015e21360_Images/5d16d17119d2ed0015e21360_Image_11.jpeg,liked,3.613205605,,,,,,,,,,,
,,,,,,space,0.0868,NAN,,NAN,,0,61,61,61,1,62,Alex,Acc,Participant_Images/5d16d17119d2ed0015e21360/5d16d17119d2ed0015e21360_Images/5d16d17119d2ed0015e21360_Image_19.jpeg,liked,4.988446431,,,,,,,,,,,
,,,,,,space,0.2585,NAN,,NAN,,0,62,62,62,1,63,Alex,Acc,Participant_Images/5d16d17119d2ed0015e21360/5d16d17119d2ed0015e21360_Images/5d16d17119d2ed0015e21360_Image_24.jpeg,liked,3.470791822,,,,,,,,,,,
,,,,,,space,0.1509,NAN,,NAN,,0,63,63,63,1,64,Alex,Acc,Participant_Images/5d16d17119d2ed0015e21360/5d16d17119d2ed0015e21360_Images/5d16d17119d2ed0015e21360_Image_29.jpeg,liked,3.820572462,,,,,,,,,,,
,,,,,,,,,,,,,,,,,,,,,,,,999,space,0.2816,0,0,0,0,1,,
,,,,,,,,NAN,,NAN,,0,64,64,64,1,65,Alex,Acc,Participant_Images/5d16d17119d2ed0015e21360/5d16d17119d2ed0015e21360_Images/5d16d17119d2ed0015e21360_Image_30.jpeg,liked,2.455989137,,,,,,,,,,,
,,,,,,space,0.1371,NAN,,NAN,,0,65,65,65,1,66,Alex,Acc,Participant_Images/5d16d17119d2ed0015e21360/5d16d17119d2ed0015e21360_Images/5d16d17119d2ed0015e21360_Image_4.jpeg,liked,3.79605092,,,,,,,,,,,
,,,,,,space,0.3006,NAN,,NAN,,0,66,66,66,1,67,Alex,Acc,Participant_Images/5d16d17119d2ed0015e21360/5d16d17119d2ed0015e21360_Images/5d16d17119d2ed0015e21360_Image_2.jpeg,liked,3.562416326,,,,,,,,,,,
,,,,,,space,0.2337,NAN,,NAN,,0,67,67,67,1,68,Alex,Acc,Participant_Images/5d16d17119d2ed0015e21360/5d16d17119d2ed0015e21360_Images/5d16d17119d2ed0015e21360_Image_10.jpeg,liked,2.843822497,,,,,,,,,,,
,,,,,,space,0.099,NAN,,NAN,,0,68,68,68,1,69,Alex,Acc,Participant_Images/5d16d17119d2ed0015e21360/5d16d17119d2ed0015e21360_Images/5d16d17119d2ed0015e21360_Image_15.jpeg,liked,3.546495948,,,,,,,,,,,
,,,,,,,,,,,,,,,,,,,,,,,,999,space,0.5381,0,0,0,0,1,,
,,,,,,,,NAN,,NAN,,0,69,69,69,1,70,Alex,Acc,Participant_Images/5d16d17119d2ed0015e21360/5d16d17119d2ed0015e21360_Images/5d16d17119d2ed0015e21360_Image_22.jpeg,did not like,1.672012706,,,,,,,,,,,
,,,,,,space,0.0008,NAN,,NAN,,0,70,70,70,1,71,Alex,Acc,Participant_Images/5d16d17119d2ed0015e21360/5d16d17119d2ed0015e21360_Images/5d16d17119d2ed0015e21360_Image_27.jpeg,liked,4.942172136,,,,,,,,,,,
,,,,,,space,0.0006,NAN,,NAN,,0,71,71,71,1,72,Alex,Acc,Participant_Images/5d16d17119d2ed0015e21360/5d16d17119d2ed0015e21360_Images/5d16d17119d2ed0015e21360_Image_25.jpeg,liked,2.50187214,,,,,,,,,,,
,,,,,,space,0.1239,NAN,,NAN,,0,72,72,72,1,73,Alex,Acc,Participant_Images/5d16d17119d2ed0015e21360/5d16d17119d2ed0015e21360_Images/5d16d17119d2ed0015e21360_Image_8.jpeg,liked,2.071164779,,,,,,,,,,,
,,,,,,space,0.0508,NAN,,NAN,,0,73,73,73,1,74,Alex,Acc,Participant_Images/5d16d17119d2ed0015e21360/5d16d17119d2ed0015e21360_Images/5d16d17119d2ed0015e21360_Image_1.jpeg,liked,5.336503566,,,,,,,,,,,
,,,,,,,,,,,,,,,,,,,,,,,,999,space,0.35,0,0,0,0,1,,
,,,,,,,,NAN,,NAN,,0,74,74,74,1,75,Alex,Acc,Participant_Images/5d16d17119d2ed0015e21360/5d16d17119d2ed0015e21360_Images/5d16d17119d2ed0015e21360_Image_18.jpeg,liked,2.642157193,,,,,,,,,,,
,,,,,,space,0.2343,NAN,,NAN,,0,75,75,75,1,76,Alex,Acc,Participant_Images/5d16d17119d2ed0015e21360/5d16d17119d2ed0015e21360_Images/5d16d17119d2ed0015e21360_Image_20.jpeg,did not like,4.456234322,,,,,,,,,,,
,,,,,,space,0.4322,NAN,,NAN,,0,76,76,76,1,77,Alex,Acc,Participant_Images/5d16d17119d2ed0015e21360/5d16d17119d2ed0015e21360_Images/5d16d17119d2ed0015e21360_Image_6.jpeg,did not like,4.438512181,,,,,,,,,,,
,,,,,,space,0.6687,NAN,,NAN,,0,77,77,77,1,78,Alex,Acc,Participant_Images/5d16d17119d2ed0015e21360/5d16d17119d2ed0015e21360_Images/5d16d17119d2ed0015e21360_Image_3.jpeg,liked,2.682944783,,,,,,,,,,,
,,,,,,space,0.4357,NAN,,NAN,,0,78,78,78,1,79,Alex,Acc,Participant_Images/5d16d17119d2ed0015e21360/5d16d17119d2ed0015e21360_Images/5d16d17119d2ed0015e21360_Image_5.jpeg,liked,4.51984296,,,,,,,,,,,
,,,,,,,,,,,,,,,,,,,,,,,,999,space,0.2413,0,0,0,0,1,,
,,,,,,,,NAN,,NAN,,0,79,79,79,1,80,Alex,Acc,Participant_Images/5d16d17119d2ed0015e21360/5d16d17119d2ed0015e21360_Images/5d16d17119d2ed0015e21360_Image_14.jpeg,did not like,3.195382774,,,,,,,,,,,
,,,,,,space,0.0992,NAN,,NAN,,0,80,80,80,1,81,Alex,Acc,Participant_Images/5d16d17119d2ed0015e21360/5d16d17119d2ed0015e21360_Images/5d16d17119d2ed0015e21360_Image_28.jpeg,did not like,1.779333479,,,,,,,,,,,
,,,,,,space,0.0006,NAN,,NAN,,0,81,81,81,1,82,Alex,Acc,Participant_Images/5d16d17119d2ed0015e21360/5d16d17119d2ed0015e21360_Images/5d16d17119d2ed0015e21360_Image_9.jpeg,did not like,4.312468682,,,,,,,,,,,
,,,,,,space,0.0343,NAN,,NAN,,0,82,82,82,1,83,Alex,Acc,Participant_Images/5d16d17119d2ed0015e21360/5d16d17119d2ed0015e21360_Images/5d16d17119d2ed0015e21360_Image_21.jpeg,liked,4.940433059,,,,,,,,,,,
,,,,,,space,0.4377,NAN,,NAN,,0,83,83,83,1,84,Alex,Acc,Participant_Images/5d16d17119d2ed0015e21360/5d16d17119d2ed0015e21360_Images/5d16d17119d2ed0015e21360_Image_7.jpeg,did not like,2.7105123,,,,,,,,,,,
,,,,,,,,,,,,,,,,,,,,,,,,999,space,0.0886,0,0,0,0,1,,
,,,,,,,,NAN,,NAN,,0,84,84,84,1,85,Alex,Acc,Participant_Images/5d16d17119d2ed0015e21360/5d16d17119d2ed0015e21360_Images/5d16d17119d2ed0015e21360_Image_13.jpeg,did not like,3.602308302,,,,,,,,,,,
,,,,,,space,0.1832,NAN,,NAN,,0,85,85,85,1,86,Alex,Acc,Participant_Images/5d16d17119d2ed0015e21360/5d16d17119d2ed0015e21360_Images/5d16d17119d2ed0015e21360_Image_17.jpeg,did not like,4.106391878,,,,,,,,,,,
,,,,,,space,0.2784,NAN,,NAN,,0,86,86,86,1,87,Alex,Acc,Participant_Images/5d16d17119d2ed0015e21360/5d16d17119d2ed0015e21360_Images/5d16d17119d2ed0015e21360_Image_26.jpeg,liked,3.799433026,,,,,,,,,,,
,,,,,,space,0.8196,NAN,,NAN,,0,87,87,87,1,88,Alex,Acc,Participant_Images/5d16d17119d2ed0015e21360/5d16d17119d2ed0015e21360_Images/5d16d17119d2ed0015e21360_Image_16.jpeg,liked,5.246980764,,,,,,,,,,,
,,,,,,space,0.0204,NAN,,NAN,,0,88,88,88,1,89,Alex,Acc,Participant_Images/5d16d17119d2ed0015e21360/5d16d17119d2ed0015e21360_Images/5d16d17119d2ed0015e21360_Image_12.jpeg,liked,3.30081769,,,,,,,,,,,
,,,,,,,,,,,,,,,,,,,,,,,,999,space,0.1076,0,0,0,0,1,,
,,,,,,,,5,,3,,0,89,89,89,1,90,Alex,Acc,Participant_Images/5d16d17119d2ed0015e21360/5d16d17119d2ed0015e21360_Images/5d16d17119d2ed0015e21360_Image_23.jpeg,liked,1.661473164,,,,,,,,,,,
,,,,space,0.3116,space,0.6165,NAN,,NAN,,0,90,90,90,1,91,Taylor,Neutral,Participant_Images/5d16d17119d2ed0015e21360/5d16d17119d2ed0015e21360_Images/5d16d17119d2ed0015e21360_Image_7.jpeg,did not like,3.613205605,,,,,,,,,,,
,,,,,,space,0.4663,NAN,,NAN,,0,91,91,91,1,92,Taylor,Neutral,Participant_Images/5d16d17119d2ed0015e21360/5d16d17119d2ed0015e21360_Images/5d16d17119d2ed0015e21360_Image_4.jpeg,liked,4.988446431,,,,,,,,,,,
,,,,,,space,0.0005,NAN,,NAN,,0,92,92,92,1,93,Taylor,Neutral,Participant_Images/5d16d17119d2ed0015e21360/5d16d17119d2ed0015e21360_Images/5d16d17119d2ed0015e21360_Image_19.jpeg,did not like,3.470791822,,,,,,,,,,,
,,,,,,space,0.0855,NAN,,NAN,,0,93,93,93,1,94,Taylor,Neutral,Participant_Images/5d16d17119d2ed0015e21360/5d16d17119d2ed0015e21360_Images/5d16d17119d2ed0015e21360_Image_26.jpeg,did not like,3.820572462,,,,,,,,,,,
,,,,,,,,,,,,,,,,,,,,,,,,999,space,0.0521,0,0,0,0,1,,
,,,,,,,,NAN,,NAN,,0,94,94,94,1,95,Taylor,Neutral,Participant_Images/5d16d17119d2ed0015e21360/5d16d17119d2ed0015e21360_Images/5d16d17119d2ed0015e21360_Image_27.jpeg,did not like,2.455989137,,,,,,,,,,,
,,,,,,space,0.2176,NAN,,NAN,,0,95,95,95,1,96,Taylor,Neutral,Participant_Images/5d16d17119d2ed0015e21360/5d16d17119d2ed0015e21360_Images/5d16d17119d2ed0015e21360_Image_10.jpeg,did not like,3.79605092,,,,,,,,,,,
,,,,,,space,0.0951,NAN,,NAN,,0,96,96,96,1,97,Taylor,Neutral,Participant_Images/5d16d17119d2ed0015e21360/5d16d17119d2ed0015e21360_Images/5d16d17119d2ed0015e21360_Image_22.jpeg,liked,3.562416326,,,,,,,,,,,
,,,,,,space,0.1444,NAN,,NAN,,0,97,97,97,1,98,Taylor,Neutral,Participant_Images/5d16d17119d2ed0015e21360/5d16d17119d2ed0015e21360_Images/5d16d17119d2ed0015e21360_Image_5.jpeg,liked,2.843822497,,,,,,,,,,,
,,,,,,space,0.7908,NAN,,NAN,,0,98,98,98,1,99,Taylor,Neutral,Participant_Images/5d16d17119d2ed0015e21360/5d16d17119d2ed0015e21360_Images/5d16d17119d2ed0015e21360_Image_24.jpeg,liked,3.546495948,,,,,,,,,,,
,,,,,,,,,,,,,,,,,,,,,,,,999,space,0.0672,0,0,0,0,1,,
,,,,,,,,NAN,,NAN,,0,99,99,99,1,100,Taylor,Neutral,Participant_Images/5d16d17119d2ed0015e21360/5d16d17119d2ed0015e21360_Images/5d16d17119d2ed0015e21360_Image_3.jpeg,did not like,1.672012706,,,,,,,,,,,
,,,,,,space,0.5057,NAN,,NAN,,0,100,100,100,1,101,Taylor,Neutral,Participant_Images/5d16d17119d2ed0015e21360/5d16d17119d2ed0015e21360_Images/5d16d17119d2ed0015e21360_Image_8.jpeg,liked,4.942172136,,,,,,,,,,,
,,,,,,space,0.116,NAN,,NAN,,0,101,101,101,1,102,Taylor,Neutral,Participant_Images/5d16d17119d2ed0015e21360/5d16d17119d2ed0015e21360_Images/5d16d17119d2ed0015e21360_Image_16.jpeg,did not like,2.50187214,,,,,,,,,,,
,,,,,,space,0.4644,NAN,,NAN,,0,102,102,102,1,103,Taylor,Neutral,Participant_Images/5d16d17119d2ed0015e21360/5d16d17119d2ed0015e21360_Images/5d16d17119d2ed0015e21360_Image_25.jpeg,liked,2.071164779,,,,,,,,,,,
,,,,,,space,0.4004,NAN,,NAN,,0,103,103,103,1,104,Taylor,Neutral,Participant_Images/5d16d17119d2ed0015e21360/5d16d17119d2ed0015e21360_Images/5d16d17119d2ed0015e21360_Image_17.jpeg,did not like,5.336503566,,,,,,,,,,,
,,,,,,,,,,,,,,,,,,,,,,,,999,space,0.5672,0,0,0,0,1,,
,,,,,,,,NAN,,NAN,,0,104,104,104,1,105,Taylor,Neutral,Participant_Images/5d16d17119d2ed0015e21360/5d16d17119d2ed0015e21360_Images/5d16d17119d2ed0015e21360_Image_11.jpeg,liked,2.642157193,,,,,,,,,,,
,,,,,,space,0.368,NAN,,NAN,,0,105,105,105,1,106,Taylor,Neutral,Participant_Images/5d16d17119d2ed0015e21360/5d16d17119d2ed0015e21360_Images/5d16d17119d2ed0015e21360_Image_18.jpeg,liked,4.456234322,,,,,,,,,,,
,,,,,,space,0.6131,NAN,,NAN,,0,106,106,106,1,107,Taylor,Neutral,Participant_Images/5d16d17119d2ed0015e21360/5d16d17119d2ed0015e21360_Images/5d16d17119d2ed0015e21360_Image_6.jpeg,liked,4.438512181,,,,,,,,,,,
,,,,,,space,0.4196,NAN,,NAN,,0,107,107,107,1,108,Taylor,Neutral,Participant_Images/5d16d17119d2ed0015e21360/5d16d17119d2ed0015e21360_Images/5d16d17119d2ed0015e21360_Image_21.jpeg,liked,2.682944783,,,,,,,,,,,
,,,,,,space,0.586,NAN,,NAN,,0,108,108,108,1,109,Taylor,Neutral,Participant_Images/5d16d17119d2ed0015e21360/5d16d17119d2ed0015e21360_Images/5d16d17119d2ed0015e21360_Image_9.jpeg,did not like,4.51984296,,,,,,,,,,,
,,,,,,,,,,,,,,,,,,,,,,,,999,space,0.6135,0,0,0,0,1,,
,,,,,,,,NAN,,NAN,,0,109,109,109,1,110,Taylor,Neutral,Participant_Images/5d16d17119d2ed0015e21360/5d16d17119d2ed0015e21360_Images/5d16d17119d2ed0015e21360_Image_20.jpeg,did not like,3.195382774,,,,,,,,,,,
,,,,,,space,0.1509,NAN,,NAN,,0,110,110,110,1,111,Taylor,Neutral,Participant_Images/5d16d17119d2ed0015e21360/5d16d17119d2ed0015e21360_Images/5d16d17119d2ed0015e21360_Image_12.jpeg,did not like,1.779333479,,,,,,,,,,,
,,,,,,space,0.0665,NAN,,NAN,,0,111,111,111,1,112,Taylor,Neutral,Participant_Images/5d16d17119d2ed0015e21360/5d16d17119d2ed0015e21360_Images/5d16d17119d2ed0015e21360_Image_30.jpeg,liked,4.312468682,,,,,,,,,,,
,,,,,,space,0.392,NAN,,NAN,,0,112,112,112,1,113,Taylor,Neutral,Participant_Images/5d16d17119d2ed0015e21360/5d16d17119d2ed0015e21360_Images/5d16d17119d2ed0015e21360_Image_13.jpeg,did not like,4.940433059,,,,,,,,,,,
,,,,,,space,0.2233,NAN,,NAN,,0,113,113,113,1,114,Taylor,Neutral,Participant_Images/5d16d17119d2ed0015e21360/5d16d17119d2ed0015e21360_Images/5d16d17119d2ed0015e21360_Image_23.jpeg,did not like,2.7105123,,,,,,,,,,,
,,,,,,,,,,,,,,,,,,,,,,,,999,space,0.2905,0,0,0,0,1,,
,,,,,,,,NAN,,NAN,,0,114,114,114,1,115,Taylor,Neutral,Participant_Images/5d16d17119d2ed0015e21360/5d16d17119d2ed0015e21360_Images/5d16d17119d2ed0015e21360_Image_28.jpeg,liked,3.602308302,,,,,,,,,,,
,,,,,,space,0.134,NAN,,NAN,,0,115,115,115,1,116,Taylor,Neutral,Participant_Images/5d16d17119d2ed0015e21360/5d16d17119d2ed0015e21360_Images/5d16d17119d2ed0015e21360_Image_15.jpeg,did not like,4.106391878,,,,,,,,,,,
,,,,,,space,0.5006,NAN,,NAN,,0,116,116,116,1,117,Taylor,Neutral,Participant_Images/5d16d17119d2ed0015e21360/5d16d17119d2ed0015e21360_Images/5d16d17119d2ed0015e21360_Image_1.jpeg,liked,3.799433026,,,,,,,,,,,
,,,,,,space,0.4675,NAN,,NAN,,0,117,117,117,1,118,Taylor,Neutral,Participant_Images/5d16d17119d2ed0015e21360/5d16d17119d2ed0015e21360_Images/5d16d17119d2ed0015e21360_Image_2.jpeg,liked,5.246980764,,,,,,,,,,,
,,,,,,space,0.4199,NAN,,NAN,,0,118,118,118,1,119,Taylor,Neutral,Participant_Images/5d16d17119d2ed0015e21360/5d16d17119d2ed0015e21360_Images/5d16d17119d2ed0015e21360_Image_14.jpeg,liked,3.30081769,,,,,,,,,,,
,,,,,,,,,,,,,,,,,,,,,,,,999,space,0.5505,0,0,0,0,1,,
,,,,,,,,5,,9,,0,119,119,119,1,120,Taylor,Neutral,Participant_Images/5d16d17119d2ed0015e21360/5d16d17119d2ed0015e21360_Images/5d16d17119d2ed0015e21360_Image_29.jpeg,did not like,1.661473164,,,,,,,,,,,
,,,,space,0.4004,space,0.3425,NAN,,NAN,,0,120,120,120,1,121,Sam,Rej,Participant_Images/5d16d17119d2ed0015e21360/5d16d17119d2ed0015e21360_Images/5d16d17119d2ed0015e21360_Image_15.jpeg,liked,3.613205605,,,,,,,,,,,
,,,,,,space,0.174,NAN,,NAN,,0,121,121,121,1,122,Sam,Rej,Participant_Images/5d16d17119d2ed0015e21360/5d16d17119d2ed0015e21360_Images/5d16d17119d2ed0015e21360_Image_24.jpeg,did not like,4.988446431,,,,,,,,,,,
,,,,,,space,0.6334,NAN,,NAN,,0,122,122,122,1,123,Sam,Rej,Participant_Images/5d16d17119d2ed0015e21360/5d16d17119d2ed0015e21360_Images/5d16d17119d2ed0015e21360_Image_23.jpeg,did not like,3.470791822,,,,,,,,,,,
,,,,,,space,0.5171,NAN,,NAN,,0,123,123,123,1,124,Sam,Rej,Participant_Images/5d16d17119d2ed0015e21360/5d16d17119d2ed0015e21360_Images/5d16d17119d2ed0015e21360_Image_28.jpeg,liked,3.820572462,,,,,,,,,,,
,,,,,,,,,,,,,,,,,,,,,,,,999,space,0.2171,0,0,0,0,1,,
,,,,,,,,NAN,,NAN,,0,124,124,124,1,125,Sam,Rej,Participant_Images/5d16d17119d2ed0015e21360/5d16d17119d2ed0015e21360_Images/5d16d17119d2ed0015e21360_Image_22.jpeg,did not like,2.455989137,,,,,,,,,,,
,,,,,,space,0.2386,NAN,,NAN,,0,125,125,125,1,126,Sam,Rej,Participant_Images/5d16d17119d2ed0015e21360/5d16d17119d2ed0015e21360_Images/5d16d17119d2ed0015e21360_Image_4.jpeg,did not like,3.79605092,,,,,,,,,,,
,,,,,,space,0.3263,NAN,,NAN,,0,126,126,126,1,127,Sam,Rej,Participant_Images/5d16d17119d2ed0015e21360/5d16d17119d2ed0015e21360_Images/5d16d17119d2ed0015e21360_Image_6.jpeg,did not like,3.562416326,,,,,,,,,,,
,,,,,,space,0.3374,NAN,,NAN,,0,127,127,127,1,128,Sam,Rej,Participant_Images/5d16d17119d2ed0015e21360/5d16d17119d2ed0015e21360_Images/5d16d17119d2ed0015e21360_Image_19.jpeg,did not like,2.843822497,,,,,,,,,,,
,,,,,,space,0.1775,NAN,,NAN,,0,128,128,128,1,129,Sam,Rej,Participant_Images/5d16d17119d2ed0015e21360/5d16d17119d2ed0015e21360_Images/5d16d17119d2ed0015e21360_Image_3.jpeg,did not like,3.546495948,,,,,,,,,,,
,,,,,,,,,,,,,,,,,,,,,,,,999,space,0.5665,0,0,0,0,1,,
,,,,,,,,NAN,,NAN,,0,129,129,129,1,130,Sam,Rej,Participant_Images/5d16d17119d2ed0015e21360/5d16d17119d2ed0015e21360_Images/5d16d17119d2ed0015e21360_Image_20.jpeg,liked,1.672012706,,,,,,,,,,,
,,,,,,space,0.3731,NAN,,NAN,,0,130,130,130,1,131,Sam,Rej,Participant_Images/5d16d17119d2ed0015e21360/5d16d17119d2ed0015e21360_Images/5d16d17119d2ed0015e21360_Image_7.jpeg,did not like,4.942172136,,,,,,,,,,,
,,,,,,space,0.4866,NAN,,NAN,,0,131,131,131,1,132,Sam,Rej,Participant_Images/5d16d17119d2ed0015e21360/5d16d17119d2ed0015e21360_Images/5d16d17119d2ed0015e21360_Image_30.jpeg,did not like,2.50187214,,,,,,,,,,,
,,,,,,space,0.1336,NAN,,NAN,,0,132,132,132,1,133,Sam,Rej,Participant_Images/5d16d17119d2ed0015e21360/5d16d17119d2ed0015e21360_Images/5d16d17119d2ed0015e21360_Image_8.jpeg,liked,2.071164779,,,,,,,,,,,
,,,,,,space,0.1671,NAN,,NAN,,0,133,133,133,1,134,Sam,Rej,Participant_Images/5d16d17119d2ed0015e21360/5d16d17119d2ed0015e21360_Images/5d16d17119d2ed0015e21360_Image_26.jpeg,did not like,5.336503566,,,,,,,,,,,
,,,,,,,,,,,,,,,,,,,,,,,,999,space,0.0598,0,0,0,0,1,,
,,,,,,,,NAN,,NAN,,0,134,134,134,1,135,Sam,Rej,Participant_Images/5d16d17119d2ed0015e21360/5d16d17119d2ed0015e21360_Images/5d16d17119d2ed0015e21360_Image_16.jpeg,liked,2.642157193,,,,,,,,,,,
,,,,,,space,0.3198,NAN,,NAN,,0,135,135,135,1,136,Sam,Rej,Participant_Images/5d16d17119d2ed0015e21360/5d16d17119d2ed0015e21360_Images/5d16d17119d2ed0015e21360_Image_10.jpeg,liked,4.456234322,,,,,,,,,,,
,,,,,,space,0.22,NAN,,NAN,,0,136,136,136,1,137,Sam,Rej,Participant_Images/5d16d17119d2ed0015e21360/5d16d17119d2ed0015e21360_Images/5d16d17119d2ed0015e21360_Image_27.jpeg,liked,4.438512181,,,,,,,,,,,
,,,,,,space,0.2337,NAN,,NAN,,0,137,137,137,1,138,Sam,Rej,Participant_Images/5d16d17119d2ed0015e21360/5d16d17119d2ed0015e21360_Images/5d16d17119d2ed0015e21360_Image_14.jpeg,did not like,2.682944783,,,,,,,,,,,
,,,,,,space,0.836,NAN,,NAN,,0,138,138,138,1,139,Sam,Rej,Participant_Images/5d16d17119d2ed0015e21360/5d16d17119d2ed0015e21360_Images/5d16d17119d2ed0015e21360_Image_18.jpeg,did not like,4.51984296,,,,,,,,,,,
,,,,,,,,,,,,,,,,,,,,,,,,999,space,0.6803,0,0,0,0,1,,
,,,,,,,,NAN,,NAN,,0,139,139,139,1,140,Sam,Rej,Participant_Images/5d16d17119d2ed0015e21360/5d16d17119d2ed0015e21360_Images/5d16d17119d2ed0015e21360_Image_25.jpeg,did not like,3.195382774,,,,,,,,,,,
,,,,,,space,0.4078,NAN,,NAN,,0,140,140,140,1,141,Sam,Rej,Participant_Images/5d16d17119d2ed0015e21360/5d16d17119d2ed0015e21360_Images/5d16d17119d2ed0015e21360_Image_17.jpeg,did not like,1.779333479,,,,,,,,,,,
,,,,,,space,0.2944,NAN,,NAN,,0,141,141,141,1,142,Sam,Rej,Participant_Images/5d16d17119d2ed0015e21360/5d16d17119d2ed0015e21360_Images/5d16d17119d2ed0015e21360_Image_5.jpeg,did not like,4.312468682,,,,,,,,,,,
,,,,,,space,0.5939,NAN,,NAN,,0,142,142,142,1,143,Sam,Rej,Participant_Images/5d16d17119d2ed0015e21360/5d16d17119d2ed0015e21360_Images/5d16d17119d2ed0015e21360_Image_11.jpeg,did not like,4.940433059,,,,,,,,,,,
,,,,,,space,0.5177,NAN,,NAN,,0,143,143,143,1,144,Sam,Rej,Participant_Images/5d16d17119d2ed0015e21360/5d16d17119d2ed0015e21360_Images/5d16d17119d2ed0015e21360_Image_13.jpeg,did not like,2.7105123,,,,,,,,,,,
,,,,,,,,,,,,,,,,,,,,,,,,999,space,0.5876,0,0,0,0,1,,
,,,,,,,,NAN,,NAN,,0,144,144,144,1,145,Sam,Rej,Participant_Images/5d16d17119d2ed0015e21360/5d16d17119d2ed0015e21360_Images/5d16d17119d2ed0015e21360_Image_21.jpeg,did not like,3.602308302,,,,,,,,,,,
,,,,,,space,0.5654,NAN,,NAN,,0,145,145,145,1,146,Sam,Rej,Participant_Images/5d16d17119d2ed0015e21360/5d16d17119d2ed0015e21360_Images/5d16d17119d2ed0015e21360_Image_12.jpeg,did not like,4.106391878,,,,,,,,,,,
,,,,,,space,1.0524,NAN,,NAN,,0,146,146,146,1,147,Sam,Rej,Participant_Images/5d16d17119d2ed0015e21360/5d16d17119d2ed0015e21360_Images/5d16d17119d2ed0015e21360_Image_29.jpeg,did not like,3.799433026,,,,,,,,,,,
,,,,,,space,0.4573,NAN,,NAN,,0,147,147,147,1,148,Sam,Rej,Participant_Images/5d16d17119d2ed0015e21360/5d16d17119d2ed0015e21360_Images/5d16d17119d2ed0015e21360_Image_1.jpeg,liked,5.246980764,,,,,,,,,,,
,,,,,,space,0.178,NAN,,NAN,,0,148,148,148,1,149,Sam,Rej,Participant_Images/5d16d17119d2ed0015e21360/5d16d17119d2ed0015e21360_Images/5d16d17119d2ed0015e21360_Image_2.jpeg,liked,3.30081769,,,,,,,,,,,
,,,,,,,,,,,,,,,,,,,,,,,,999,space,0.3839,0,0,0,0,1,,
,,,,,,,,5,,9,,0,149,149,149,1,150,Sam,Rej,Participant_Images/5d16d17119d2ed0015e21360/5d16d17119d2ed0015e21360_Images/5d16d17119d2ed0015e21360_Image_9.jpeg,did not like,1.661473164,,,,,,,,,,,
,,,,,,,,,,,,,,,,,,,,,,,,,,,,,,,,space,0.9826
