endwelcomescreen_keys.keys,endwelcomescreen_keys.rt,endinstructionscreen_keys.keys,endinstructionscreen_keys.rt,endpartnermatch_keys.keys,endpartnermatch_keys.rt,sharenextphoto_key.keys,sharenextphoto_key.rt,salience_rating,key_resp.keys,stress_level,stresslevel_keypress.keys,entiretaskloop.thisRepN,entiretaskloop.thisTrialN,entiretaskloop.thisN,entiretaskloop.thisIndex,entiretaskloop.ran,TrialNumber,Partner,Condition,Photos,Feedback,FeedbackWait,choice_keys.keys,playlottery,resumeafterlottery_keys.keys,resumeafterlottery_keys.rt,lotteryloop.thisRepN,lotteryloop.thisTrialN,lotteryloop.thisN,lotteryloop.thisIndex,lotteryloop.ran,choice_keys.rt,lotteryguess_keys.keys,end_screen_keys.keys,end_screen_keys.rt
space,3.9224,,,,,,,,,,,,,,,,,,,,,,,,,,,,,,,,,,
,,,,,,,,,,,,,,,,,,,,,,,,,,,,,,,,,,,
,,space,6.3755,,,,,,,,,,,,,,,,,,,,,,,,,,,,,,,,
,,,,space,1.5925,space,0.9883,NAN,,NAN,,0,0,0,0,1,1,Charlie,Neutral,Participant_Images/5dee8ee31255595293a9906b/5dee8ee31255595293a9906b_Images/5dee8ee31255595293a9906b_Image_11.jpeg,did not like,3.613205605,,,,,,,,,,,,,
,,,,,,space,0.5344,NAN,,NAN,,0,1,1,1,1,2,Charlie,Neutral,Participant_Images/5dee8ee31255595293a9906b/5dee8ee31255595293a9906b_Images/5dee8ee31255595293a9906b_Image_28.jpeg,liked,4.988446431,,,,,,,,,,,,,
,,,,,,space,0.6702,NAN,,NAN,,0,2,2,2,1,3,Charlie,Neutral,Participant_Images/5dee8ee31255595293a9906b/5dee8ee31255595293a9906b_Images/5dee8ee31255595293a9906b_Image_29.jpeg,liked,3.470791822,,,,,,,,,,,,,
,,,,,,space,0.5243,NAN,,NAN,,0,3,3,3,1,4,Charlie,Neutral,Participant_Images/5dee8ee31255595293a9906b/5dee8ee31255595293a9906b_Images/5dee8ee31255595293a9906b_Image_27.jpeg,did not like,3.820572462,,,,,,,,,,,,,
,,,,,,,,,,,,,,,,,,,,,,,,999,space,2.0166,0,0,0,0,1,,,,
,,,,,,,,NAN,,NAN,,0,4,4,4,1,5,Charlie,Neutral,Participant_Images/5dee8ee31255595293a9906b/5dee8ee31255595293a9906b_Images/5dee8ee31255595293a9906b_Image_16.jpeg,liked,2.455989137,,,,,,,,,,,,,
,,,,,,space,0.4835,NAN,,NAN,,0,5,5,5,1,6,Charlie,Neutral,Participant_Images/5dee8ee31255595293a9906b/5dee8ee31255595293a9906b_Images/5dee8ee31255595293a9906b_Image_19.jpeg,liked,3.79605092,,,,,,,,,,,,,
,,,,,,space,0.5779,NAN,,NAN,,0,6,6,6,1,7,Charlie,Neutral,Participant_Images/5dee8ee31255595293a9906b/5dee8ee31255595293a9906b_Images/5dee8ee31255595293a9906b_Image_25.jpeg,liked,3.562416326,,,,,,,,,,,,,
,,,,,,space,0.4457,NAN,,NAN,,0,7,7,7,1,8,Charlie,Neutral,Participant_Images/5dee8ee31255595293a9906b/5dee8ee31255595293a9906b_Images/5dee8ee31255595293a9906b_Image_24.jpeg,did not like,2.843822497,,,,,,,,,,,,,
,,,,,,space,0.4672,NAN,,NAN,,0,8,8,8,1,9,Charlie,Neutral,Participant_Images/5dee8ee31255595293a9906b/5dee8ee31255595293a9906b_Images/5dee8ee31255595293a9906b_Image_12.jpeg,liked,3.546495948,,,,,,,,,,,,,
,,,,,,,,,,,,,,,,,,,,,,,s,1,space,6.0795,0,0,0,0,1,0.962,,,
,,,,,,,,NAN,,NAN,,0,9,9,9,1,10,Charlie,Neutral,Participant_Images/5dee8ee31255595293a9906b/5dee8ee31255595293a9906b_Images/5dee8ee31255595293a9906b_Image_5.jpeg,did not like,1.672012706,,,,,,,,,,,,,
,,,,,,space,0.6576,NAN,,NAN,,0,10,10,10,1,11,Charlie,Neutral,Participant_Images/5dee8ee31255595293a9906b/5dee8ee31255595293a9906b_Images/5dee8ee31255595293a9906b_Image_6.jpeg,liked,4.942172136,,,,,,,,,,,,,
,,,,,,space,0.5732,NAN,,NAN,,0,11,11,11,1,12,Charlie,Neutral,Participant_Images/5dee8ee31255595293a9906b/5dee8ee31255595293a9906b_Images/5dee8ee31255595293a9906b_Image_23.jpeg,liked,2.50187214,,,,,,,,,,,,,
,,,,,,space,0.5511,NAN,,NAN,,0,12,12,12,1,13,Charlie,Neutral,Participant_Images/5dee8ee31255595293a9906b/5dee8ee31255595293a9906b_Images/5dee8ee31255595293a9906b_Image_13.jpeg,did not like,2.071164779,,,,,,,,,,,,,
,,,,,,space,0.5755,NAN,,NAN,,0,13,13,13,1,14,Charlie,Neutral,Participant_Images/5dee8ee31255595293a9906b/5dee8ee31255595293a9906b_Images/5dee8ee31255595293a9906b_Image_26.jpeg,liked,5.336503566,,,,,,,,,,,,,
,,,,,,,,,,,,,,,,,,,,,,,c,0,space,0.6993,0,0,0,0,1,1.3533,,,
,,,,,,,,NAN,,NAN,,0,14,14,14,1,15,Charlie,Neutral,Participant_Images/5dee8ee31255595293a9906b/5dee8ee31255595293a9906b_Images/5dee8ee31255595293a9906b_Image_15.jpeg,did not like,2.642157193,,,,,,,,,,,,,
,,,,,,space,0.5496,NAN,,NAN,,0,15,15,15,1,16,Charlie,Neutral,Participant_Images/5dee8ee31255595293a9906b/5dee8ee31255595293a9906b_Images/5dee8ee31255595293a9906b_Image_4.jpeg,liked,4.456234322,,,,,,,,,,,,,
,,,,,,space,1.0837,NAN,,NAN,,0,16,16,16,1,17,Charlie,Neutral,Participant_Images/5dee8ee31255595293a9906b/5dee8ee31255595293a9906b_Images/5dee8ee31255595293a9906b_Image_1.jpeg,liked,4.438512181,,,,,,,,,,,,,
,,,,,,space,0.7255,NAN,,NAN,,0,17,17,17,1,18,Charlie,Neutral,Participant_Images/5dee8ee31255595293a9906b/5dee8ee31255595293a9906b_Images/5dee8ee31255595293a9906b_Image_7.jpeg,did not like,2.682944783,,,,,,,,,,,,,
,,,,,,space,0.3503,NAN,,NAN,,0,18,18,18,1,19,Charlie,Neutral,Participant_Images/5dee8ee31255595293a9906b/5dee8ee31255595293a9906b_Images/5dee8ee31255595293a9906b_Image_18.jpeg,did not like,4.51984296,,,,,,,,,,,,,
,,,,,,,,,,,,,,,,,,,,,,,c,0,space,0.5629,0,0,0,0,1,0.8204,,,
,,,,,,,,NAN,,NAN,,0,19,19,19,1,20,Charlie,Neutral,Participant_Images/5dee8ee31255595293a9906b/5dee8ee31255595293a9906b_Images/5dee8ee31255595293a9906b_Image_2.jpeg,did not like,3.195382774,,,,,,,,,,,,,
,,,,,,space,0.5341,NAN,,NAN,,0,20,20,20,1,21,Charlie,Neutral,Participant_Images/5dee8ee31255595293a9906b/5dee8ee31255595293a9906b_Images/5dee8ee31255595293a9906b_Image_14.jpeg,did not like,1.779333479,,,,,,,,,,,,,
,,,,,,space,0.5073,NAN,,NAN,,0,21,21,21,1,22,Charlie,Neutral,Participant_Images/5dee8ee31255595293a9906b/5dee8ee31255595293a9906b_Images/5dee8ee31255595293a9906b_Image_9.jpeg,did not like,4.312468682,,,,,,,,,,,,,
,,,,,,space,0.9785,NAN,,NAN,,0,22,22,22,1,23,Charlie,Neutral,Participant_Images/5dee8ee31255595293a9906b/5dee8ee31255595293a9906b_Images/5dee8ee31255595293a9906b_Image_8.jpeg,liked,4.940433059,,,,,,,,,,,,,
,,,,,,space,0.5668,NAN,,NAN,,0,23,23,23,1,24,Charlie,Neutral,Participant_Images/5dee8ee31255595293a9906b/5dee8ee31255595293a9906b_Images/5dee8ee31255595293a9906b_Image_17.jpeg,did not like,2.7105123,,,,,,,,,,,,,
,,,,,,,,,,,,,,,,,,,,,,,c,0,space,0.5618,0,0,0,0,1,1.4113,,,
,,,,,,,,NAN,,NAN,,0,24,24,24,1,25,Charlie,Neutral,Participant_Images/5dee8ee31255595293a9906b/5dee8ee31255595293a9906b_Images/5dee8ee31255595293a9906b_Image_10.jpeg,did not like,3.602308302,,,,,,,,,,,,,
,,,,,,space,0.317,NAN,,NAN,,0,25,25,25,1,26,Charlie,Neutral,Participant_Images/5dee8ee31255595293a9906b/5dee8ee31255595293a9906b_Images/5dee8ee31255595293a9906b_Image_22.jpeg,did not like,4.106391878,,,,,,,,,,,,,
,,,,,,space,0.6125,NAN,,NAN,,0,26,26,26,1,27,Charlie,Neutral,Participant_Images/5dee8ee31255595293a9906b/5dee8ee31255595293a9906b_Images/5dee8ee31255595293a9906b_Image_20.jpeg,liked,3.799433026,,,,,,,,,,,,,
,,,,,,space,0.6159,NAN,,NAN,,0,27,27,27,1,28,Charlie,Neutral,Participant_Images/5dee8ee31255595293a9906b/5dee8ee31255595293a9906b_Images/5dee8ee31255595293a9906b_Image_21.jpeg,did not like,5.246980764,,,,,,,,,,,,,
,,,,,,space,0.3672,NAN,,NAN,,0,28,28,28,1,29,Charlie,Neutral,Participant_Images/5dee8ee31255595293a9906b/5dee8ee31255595293a9906b_Images/5dee8ee31255595293a9906b_Image_30.jpeg,liked,3.30081769,,,,,,,,,,,,,
,,,,,,,,,,,,,,,,,,,,,,,c,0,space,0.5099,0,0,0,0,1,0.8871,,,
,,,,,,,,2,,2,,0,29,29,29,1,30,Charlie,Neutral,Participant_Images/5dee8ee31255595293a9906b/5dee8ee31255595293a9906b_Images/5dee8ee31255595293a9906b_Image_3.jpeg,liked,1.661473164,,,,,,,,,,,,,
,,,,space,1.2124,space,0.8837,NAN,,NAN,,0,30,30,30,1,31,Alex,Acc,Participant_Images/5dee8ee31255595293a9906b/5dee8ee31255595293a9906b_Images/5dee8ee31255595293a9906b_Image_3.jpeg,liked,3.613205605,,,,,,,,,,,,,
,,,,,,space,0.8577,NAN,,NAN,,0,31,31,31,1,32,Alex,Acc,Participant_Images/5dee8ee31255595293a9906b/5dee8ee31255595293a9906b_Images/5dee8ee31255595293a9906b_Image_27.jpeg,liked,4.988446431,,,,,,,,,,,,,
,,,,,,space,0.6781,NAN,,NAN,,0,32,32,32,1,33,Alex,Acc,Participant_Images/5dee8ee31255595293a9906b/5dee8ee31255595293a9906b_Images/5dee8ee31255595293a9906b_Image_12.jpeg,liked,3.470791822,,,,,,,,,,,,,
,,,,,,space,0.7719,NAN,,NAN,,0,33,33,33,1,34,Alex,Acc,Participant_Images/5dee8ee31255595293a9906b/5dee8ee31255595293a9906b_Images/5dee8ee31255595293a9906b_Image_8.jpeg,did not like,3.820572462,,,,,,,,,,,,,
,,,,,,,,,,,,,,,,,,,,,,,c,0,space,0.6574,0,0,0,0,1,1.3785,,,
,,,,,,,,NAN,,NAN,,0,34,34,34,1,35,Alex,Acc,Participant_Images/5dee8ee31255595293a9906b/5dee8ee31255595293a9906b_Images/5dee8ee31255595293a9906b_Image_2.jpeg,did not like,2.455989137,,,,,,,,,,,,,
,,,,,,space,0.5424,NAN,,NAN,,0,35,35,35,1,36,Alex,Acc,Participant_Images/5dee8ee31255595293a9906b/5dee8ee31255595293a9906b_Images/5dee8ee31255595293a9906b_Image_1.jpeg,liked,3.79605092,,,,,,,,,,,,,
,,,,,,space,1.1896,NAN,,NAN,,0,36,36,36,1,37,Alex,Acc,Participant_Images/5dee8ee31255595293a9906b/5dee8ee31255595293a9906b_Images/5dee8ee31255595293a9906b_Image_14.jpeg,did not like,3.562416326,,,,,,,,,,,,,
,,,,,,space,0.5583,NAN,,NAN,,0,37,37,37,1,38,Alex,Acc,Participant_Images/5dee8ee31255595293a9906b/5dee8ee31255595293a9906b_Images/5dee8ee31255595293a9906b_Image_16.jpeg,did not like,2.843822497,,,,,,,,,,,,,
,,,,,,space,0.4405,NAN,,NAN,,0,38,38,38,1,39,Alex,Acc,Participant_Images/5dee8ee31255595293a9906b/5dee8ee31255595293a9906b_Images/5dee8ee31255595293a9906b_Image_22.jpeg,liked,3.546495948,,,,,,,,,,,,,
,,,,,,,,,,,,,,,,,,,,,,,c,0,space,2.399,0,0,0,0,1,0.7133,,,
,,,,,,,,NAN,,NAN,,0,39,39,39,1,40,Alex,Acc,Participant_Images/5dee8ee31255595293a9906b/5dee8ee31255595293a9906b_Images/5dee8ee31255595293a9906b_Image_7.jpeg,did not like,1.672012706,,,,,,,,,,,,,
,,,,,,space,0.4153,NAN,,NAN,,0,40,40,40,1,41,Alex,Acc,Participant_Images/5dee8ee31255595293a9906b/5dee8ee31255595293a9906b_Images/5dee8ee31255595293a9906b_Image_5.jpeg,liked,4.942172136,,,,,,,,,,,,,
,,,,,,space,0.5847,NAN,,NAN,,0,41,41,41,1,42,Alex,Acc,Participant_Images/5dee8ee31255595293a9906b/5dee8ee31255595293a9906b_Images/5dee8ee31255595293a9906b_Image_21.jpeg,liked,2.50187214,,,,,,,,,,,,,
,,,,,,space,0.5826,NAN,,NAN,,0,42,42,42,1,43,Alex,Acc,Participant_Images/5dee8ee31255595293a9906b/5dee8ee31255595293a9906b_Images/5dee8ee31255595293a9906b_Image_11.jpeg,did not like,2.071164779,,,,,,,,,,,,,
,,,,,,space,0.5225,NAN,,NAN,,0,43,43,43,1,44,Alex,Acc,Participant_Images/5dee8ee31255595293a9906b/5dee8ee31255595293a9906b_Images/5dee8ee31255595293a9906b_Image_18.jpeg,liked,5.336503566,,,,,,,,,,,,,
,,,,,,,,,,,,,,,,,,,,,,,c,0,space,1.7508,0,0,0,0,1,0.7238,,,
,,,,,,,,NAN,,NAN,,0,44,44,44,1,45,Alex,Acc,Participant_Images/5dee8ee31255595293a9906b/5dee8ee31255595293a9906b_Images/5dee8ee31255595293a9906b_Image_26.jpeg,liked,2.642157193,,,,,,,,,,,,,
,,,,,,space,1.0167,NAN,,NAN,,0,45,45,45,1,46,Alex,Acc,Participant_Images/5dee8ee31255595293a9906b/5dee8ee31255595293a9906b_Images/5dee8ee31255595293a9906b_Image_15.jpeg,liked,4.456234322,,,,,,,,,,,,,
,,,,,,space,0.5652,NAN,,NAN,,0,46,46,46,1,47,Alex,Acc,Participant_Images/5dee8ee31255595293a9906b/5dee8ee31255595293a9906b_Images/5dee8ee31255595293a9906b_Image_29.jpeg,did not like,4.438512181,,,,,,,,,,,,,
,,,,,,space,0.6618,NAN,,NAN,,0,47,47,47,1,48,Alex,Acc,Participant_Images/5dee8ee31255595293a9906b/5dee8ee31255595293a9906b_Images/5dee8ee31255595293a9906b_Image_9.jpeg,liked,2.682944783,,,,,,,,,,,,,
,,,,,,space,1.4457,NAN,,NAN,,0,48,48,48,1,49,Alex,Acc,Participant_Images/5dee8ee31255595293a9906b/5dee8ee31255595293a9906b_Images/5dee8ee31255595293a9906b_Image_28.jpeg,liked,4.51984296,,,,,,,,,,,,,
,,,,,,,,,,,,,,,,,,,,,,,c,0,space,0.6462,0,0,0,0,1,2.1943,,,
,,,,,,,,NAN,,NAN,,0,49,49,49,1,50,Alex,Acc,Participant_Images/5dee8ee31255595293a9906b/5dee8ee31255595293a9906b_Images/5dee8ee31255595293a9906b_Image_4.jpeg,liked,3.195382774,,,,,,,,,,,,,
,,,,,,space,0.7604,NAN,,NAN,,0,50,50,50,1,51,Alex,Acc,Participant_Images/5dee8ee31255595293a9906b/5dee8ee31255595293a9906b_Images/5dee8ee31255595293a9906b_Image_24.jpeg,did not like,1.779333479,,,,,,,,,,,,,
,,,,,,space,0.4074,NAN,,NAN,,0,51,51,51,1,52,Alex,Acc,Participant_Images/5dee8ee31255595293a9906b/5dee8ee31255595293a9906b_Images/5dee8ee31255595293a9906b_Image_30.jpeg,liked,4.312468682,,,,,,,,,,,,,
,,,,,,space,0.5352,NAN,,NAN,,0,52,52,52,1,53,Alex,Acc,Participant_Images/5dee8ee31255595293a9906b/5dee8ee31255595293a9906b_Images/5dee8ee31255595293a9906b_Image_19.jpeg,liked,4.940433059,,,,,,,,,,,,,
,,,,,,space,0.5296,NAN,,NAN,,0,53,53,53,1,54,Alex,Acc,Participant_Images/5dee8ee31255595293a9906b/5dee8ee31255595293a9906b_Images/5dee8ee31255595293a9906b_Image_13.jpeg,liked,2.7105123,,,,,,,,,,,,,
,,,,,,,,,,,,,,,,,,,,,,,c,0,space,0.6865,0,0,0,0,1,0.7613,,,
,,,,,,,,NAN,,NAN,,0,54,54,54,1,55,Alex,Acc,Participant_Images/5dee8ee31255595293a9906b/5dee8ee31255595293a9906b_Images/5dee8ee31255595293a9906b_Image_20.jpeg,liked,3.602308302,,,,,,,,,,,,,
,,,,,,space,1.1381,NAN,,NAN,,0,55,55,55,1,56,Alex,Acc,Participant_Images/5dee8ee31255595293a9906b/5dee8ee31255595293a9906b_Images/5dee8ee31255595293a9906b_Image_23.jpeg,liked,4.106391878,,,,,,,,,,,,,
,,,,,,space,0.5897,NAN,,NAN,,0,56,56,56,1,57,Alex,Acc,Participant_Images/5dee8ee31255595293a9906b/5dee8ee31255595293a9906b_Images/5dee8ee31255595293a9906b_Image_25.jpeg,liked,3.799433026,,,,,,,,,,,,,
,,,,,,space,0.6182,NAN,,NAN,,0,57,57,57,1,58,Alex,Acc,Participant_Images/5dee8ee31255595293a9906b/5dee8ee31255595293a9906b_Images/5dee8ee31255595293a9906b_Image_10.jpeg,liked,5.246980764,,,,,,,,,,,,,
,,,,,,space,0.5998,NAN,,NAN,,0,58,58,58,1,59,Alex,Acc,Participant_Images/5dee8ee31255595293a9906b/5dee8ee31255595293a9906b_Images/5dee8ee31255595293a9906b_Image_17.jpeg,did not like,3.30081769,,,,,,,,,,,,,
,,,,,,,,,,,,,,,,,,,,,,,c,0,space,0.4851,0,0,0,0,1,0.6948,,,
,,,,,,,,3,,2,,0,59,59,59,1,60,Alex,Acc,Participant_Images/5dee8ee31255595293a9906b/5dee8ee31255595293a9906b_Images/5dee8ee31255595293a9906b_Image_6.jpeg,liked,1.661473164,,,,,,,,,,,,,
,,,,space,1.336,space,0.6094,NAN,,NAN,,0,60,60,60,1,61,Riley,Rej,Participant_Images/5dee8ee31255595293a9906b/5dee8ee31255595293a9906b_Images/5dee8ee31255595293a9906b_Image_22.jpeg,did not like,3.613205605,,,,,,,,,,,,,
,,,,,,space,1.2806,NAN,,NAN,,0,61,61,61,1,62,Riley,Rej,Participant_Images/5dee8ee31255595293a9906b/5dee8ee31255595293a9906b_Images/5dee8ee31255595293a9906b_Image_15.jpeg,did not like,4.988446431,,,,,,,,,,,,,
,,,,,,space,2.0673,NAN,,NAN,,0,62,62,62,1,63,Riley,Rej,Participant_Images/5dee8ee31255595293a9906b/5dee8ee31255595293a9906b_Images/5dee8ee31255595293a9906b_Image_11.jpeg,did not like,3.470791822,,,,,,,,,,,,,
,,,,,,space,1.1661,NAN,,NAN,,0,63,63,63,1,64,Riley,Rej,Participant_Images/5dee8ee31255595293a9906b/5dee8ee31255595293a9906b_Images/5dee8ee31255595293a9906b_Image_30.jpeg,did not like,3.820572462,,,,,,,,,,,,,
,,,,,,,,,,,,,,,,,,,,,,,c,0,space,1.747,0,0,0,0,1,2.1677,,,
,,,,,,,,NAN,,NAN,,0,64,64,64,1,65,Riley,Rej,Participant_Images/5dee8ee31255595293a9906b/5dee8ee31255595293a9906b_Images/5dee8ee31255595293a9906b_Image_23.jpeg,did not like,2.455989137,,,,,,,,,,,,,
,,,,,,space,2.1382,NAN,,NAN,,0,65,65,65,1,66,Riley,Rej,Participant_Images/5dee8ee31255595293a9906b/5dee8ee31255595293a9906b_Images/5dee8ee31255595293a9906b_Image_12.jpeg,liked,3.79605092,,,,,,,,,,,,,
,,,,,,space,1.676,NAN,,NAN,,0,66,66,66,1,67,Riley,Rej,Participant_Images/5dee8ee31255595293a9906b/5dee8ee31255595293a9906b_Images/5dee8ee31255595293a9906b_Image_25.jpeg,did not like,3.562416326,,,,,,,,,,,,,
,,,,,,space,0.6392,NAN,,NAN,,0,67,67,67,1,68,Riley,Rej,Participant_Images/5dee8ee31255595293a9906b/5dee8ee31255595293a9906b_Images/5dee8ee31255595293a9906b_Image_2.jpeg,did not like,2.843822497,,,,,,,,,,,,,
,,,,,,space,0.3066,NAN,,NAN,,0,68,68,68,1,69,Riley,Rej,Participant_Images/5dee8ee31255595293a9906b/5dee8ee31255595293a9906b_Images/5dee8ee31255595293a9906b_Image_20.jpeg,did not like,3.546495948,,,,,,,,,,,,,
,,,,,,,,,,,,,,,,,,,,,,,c,0,space,2.9027,0,0,0,0,1,2.0456,,,
,,,,,,,,NAN,,NAN,,0,69,69,69,1,70,Riley,Rej,Participant_Images/5dee8ee31255595293a9906b/5dee8ee31255595293a9906b_Images/5dee8ee31255595293a9906b_Image_13.jpeg,liked,1.672012706,,,,,,,,,,,,,
,,,,,,space,2.1864,NAN,,NAN,,0,70,70,70,1,71,Riley,Rej,Participant_Images/5dee8ee31255595293a9906b/5dee8ee31255595293a9906b_Images/5dee8ee31255595293a9906b_Image_9.jpeg,did not like,4.942172136,,,,,,,,,,,,,
,,,,,,space,0.8252,NAN,,NAN,,0,71,71,71,1,72,Riley,Rej,Participant_Images/5dee8ee31255595293a9906b/5dee8ee31255595293a9906b_Images/5dee8ee31255595293a9906b_Image_8.jpeg,liked,2.50187214,,,,,,,,,,,,,
,,,,,,space,1.0192,NAN,,NAN,,0,72,72,72,1,73,Riley,Rej,Participant_Images/5dee8ee31255595293a9906b/5dee8ee31255595293a9906b_Images/5dee8ee31255595293a9906b_Image_28.jpeg,liked,2.071164779,,,,,,,,,,,,,
,,,,,,space,0.0881,NAN,,NAN,,0,73,73,73,1,74,Riley,Rej,Participant_Images/5dee8ee31255595293a9906b/5dee8ee31255595293a9906b_Images/5dee8ee31255595293a9906b_Image_19.jpeg,liked,5.336503566,,,,,,,,,,,,,
,,,,,,,,,,,,,,,,,,,,,,,c,0,space,0.5042,0,0,0,0,1,1.3003,,,
,,,,,,,,NAN,,NAN,,0,74,74,74,1,75,Riley,Rej,Participant_Images/5dee8ee31255595293a9906b/5dee8ee31255595293a9906b_Images/5dee8ee31255595293a9906b_Image_17.jpeg,liked,2.642157193,,,,,,,,,,,,,
,,,,,,space,0.4834,NAN,,NAN,,0,75,75,75,1,76,Riley,Rej,Participant_Images/5dee8ee31255595293a9906b/5dee8ee31255595293a9906b_Images/5dee8ee31255595293a9906b_Image_29.jpeg,did not like,4.456234322,,,,,,,,,,,,,
,,,,,,space,0.5673,NAN,,NAN,,0,76,76,76,1,77,Riley,Rej,Participant_Images/5dee8ee31255595293a9906b/5dee8ee31255595293a9906b_Images/5dee8ee31255595293a9906b_Image_6.jpeg,did not like,4.438512181,,,,,,,,,,,,,
,,,,,,space,0.0476,NAN,,NAN,,0,77,77,77,1,78,Riley,Rej,Participant_Images/5dee8ee31255595293a9906b/5dee8ee31255595293a9906b_Images/5dee8ee31255595293a9906b_Image_4.jpeg,did not like,2.682944783,,,,,,,,,,,,,
,,,,,,space,0.865,NAN,,NAN,,0,78,78,78,1,79,Riley,Rej,Participant_Images/5dee8ee31255595293a9906b/5dee8ee31255595293a9906b_Images/5dee8ee31255595293a9906b_Image_1.jpeg,did not like,4.51984296,,,,,,,,,,,,,
,,,,,,,,,,,,,,,,,,,,,,,c,0,space,0.7644,0,0,0,0,1,0.8689,,,
,,,,,,,,NAN,,NAN,,0,79,79,79,1,80,Riley,Rej,Participant_Images/5dee8ee31255595293a9906b/5dee8ee31255595293a9906b_Images/5dee8ee31255595293a9906b_Image_26.jpeg,did not like,3.195382774,,,,,,,,,,,,,
,,,,,,space,0.3381,NAN,,NAN,,0,80,80,80,1,81,Riley,Rej,Participant_Images/5dee8ee31255595293a9906b/5dee8ee31255595293a9906b_Images/5dee8ee31255595293a9906b_Image_27.jpeg,did not like,1.779333479,,,,,,,,,,,,,
,,,,,,space,0.4421,NAN,,NAN,,0,81,81,81,1,82,Riley,Rej,Participant_Images/5dee8ee31255595293a9906b/5dee8ee31255595293a9906b_Images/5dee8ee31255595293a9906b_Image_14.jpeg,did not like,4.312468682,,,,,,,,,,,,,
,,,,,,space,0.4234,NAN,,NAN,,0,82,82,82,1,83,Riley,Rej,Participant_Images/5dee8ee31255595293a9906b/5dee8ee31255595293a9906b_Images/5dee8ee31255595293a9906b_Image_5.jpeg,liked,4.940433059,,,,,,,,,,,,,
,,,,,,space,0.6733,NAN,,NAN,,0,83,83,83,1,84,Riley,Rej,Participant_Images/5dee8ee31255595293a9906b/5dee8ee31255595293a9906b_Images/5dee8ee31255595293a9906b_Image_18.jpeg,did not like,2.7105123,,,,,,,,,,,,,
,,,,,,,,,,,,,,,,,,,,,,,c,0,space,3.1104,0,0,0,0,1,1.4777,,,
,,,,,,,,NAN,,NAN,,0,84,84,84,1,85,Riley,Rej,Participant_Images/5dee8ee31255595293a9906b/5dee8ee31255595293a9906b_Images/5dee8ee31255595293a9906b_Image_3.jpeg,liked,3.602308302,,,,,,,,,,,,,
,,,,,,space,0.5152,NAN,,NAN,,0,85,85,85,1,86,Riley,Rej,Participant_Images/5dee8ee31255595293a9906b/5dee8ee31255595293a9906b_Images/5dee8ee31255595293a9906b_Image_24.jpeg,did not like,4.106391878,,,,,,,,,,,,,
,,,,,,space,0.7084,NAN,,NAN,,0,86,86,86,1,87,Riley,Rej,Participant_Images/5dee8ee31255595293a9906b/5dee8ee31255595293a9906b_Images/5dee8ee31255595293a9906b_Image_16.jpeg,did not like,3.799433026,,,,,,,,,,,,,
,,,,,,space,0.3921,NAN,,NAN,,0,87,87,87,1,88,Riley,Rej,Participant_Images/5dee8ee31255595293a9906b/5dee8ee31255595293a9906b_Images/5dee8ee31255595293a9906b_Image_7.jpeg,did not like,5.246980764,,,,,,,,,,,,,
,,,,,,space,0.5434,NAN,,NAN,,0,88,88,88,1,89,Riley,Rej,Participant_Images/5dee8ee31255595293a9906b/5dee8ee31255595293a9906b_Images/5dee8ee31255595293a9906b_Image_21.jpeg,did not like,3.30081769,,,,,,,,,,,,,
,,,,,,,,,,,,,,,,,,,,,,,c,0,space,0.5871,0,0,0,0,1,0.732,,,
,,,,,,,,1,,2,,0,89,89,89,1,90,Riley,Rej,Participant_Images/5dee8ee31255595293a9906b/5dee8ee31255595293a9906b_Images/5dee8ee31255595293a9906b_Image_10.jpeg,liked,1.661473164,,,,,,,,,,,,,
,,,,space,1.1165,space,0.442,NAN,,NAN,,0,90,90,90,1,91,Taylor,Rej,Participant_Images/5dee8ee31255595293a9906b/5dee8ee31255595293a9906b_Images/5dee8ee31255595293a9906b_Image_19.jpeg,liked,3.613205605,,,,,,,,,,,,,
,,,,,,space,0.6607,NAN,,NAN,,0,91,91,91,1,92,Taylor,Rej,Participant_Images/5dee8ee31255595293a9906b/5dee8ee31255595293a9906b_Images/5dee8ee31255595293a9906b_Image_13.jpeg,did not like,4.988446431,,,,,,,,,,,,,
,,,,,,space,0.5329,NAN,,NAN,,0,92,92,92,1,93,Taylor,Rej,Participant_Images/5dee8ee31255595293a9906b/5dee8ee31255595293a9906b_Images/5dee8ee31255595293a9906b_Image_23.jpeg,did not like,3.470791822,,,,,,,,,,,,,
,,,,,,space,0.0441,NAN,,NAN,,0,93,93,93,1,94,Taylor,Rej,Participant_Images/5dee8ee31255595293a9906b/5dee8ee31255595293a9906b_Images/5dee8ee31255595293a9906b_Image_14.jpeg,did not like,3.820572462,,,,,,,,,,,,,
,,,,,,,,,,,,,,,,,,,,,,,c,0,space,1.8275,0,0,0,0,1,1.3266,,,
,,,,,,,,NAN,,NAN,,0,94,94,94,1,95,Taylor,Rej,Participant_Images/5dee8ee31255595293a9906b/5dee8ee31255595293a9906b_Images/5dee8ee31255595293a9906b_Image_21.jpeg,did not like,2.455989137,,,,,,,,,,,,,
,,,,,,space,0.5215,NAN,,NAN,,0,95,95,95,1,96,Taylor,Rej,Participant_Images/5dee8ee31255595293a9906b/5dee8ee31255595293a9906b_Images/5dee8ee31255595293a9906b_Image_29.jpeg,did not like,3.79605092,,,,,,,,,,,,,
,,,,,,space,1.8962,NAN,,NAN,,0,96,96,96,1,97,Taylor,Rej,Participant_Images/5dee8ee31255595293a9906b/5dee8ee31255595293a9906b_Images/5dee8ee31255595293a9906b_Image_9.jpeg,liked,3.562416326,,,,,,,,,,,,,
,,,,,,space,0.1703,NAN,,NAN,,0,97,97,97,1,98,Taylor,Rej,Participant_Images/5dee8ee31255595293a9906b/5dee8ee31255595293a9906b_Images/5dee8ee31255595293a9906b_Image_24.jpeg,liked,2.843822497,,,,,,,,,,,,,
,,,,,,space,0.3547,NAN,,NAN,,0,98,98,98,1,99,Taylor,Rej,Participant_Images/5dee8ee31255595293a9906b/5dee8ee31255595293a9906b_Images/5dee8ee31255595293a9906b_Image_5.jpeg,did not like,3.546495948,,,,,,,,,,,,,
,,,,,,,,,,,,,,,,,,,,,,,c,0,space,2.4353,0,0,0,0,1,1.3571,,,
,,,,,,,,NAN,,NAN,,0,99,99,99,1,100,Taylor,Rej,Participant_Images/5dee8ee31255595293a9906b/5dee8ee31255595293a9906b_Images/5dee8ee31255595293a9906b_Image_4.jpeg,did not like,1.672012706,,,,,,,,,,,,,
,,,,,,space,0.3607,NAN,,NAN,,0,100,100,100,1,101,Taylor,Rej,Participant_Images/5dee8ee31255595293a9906b/5dee8ee31255595293a9906b_Images/5dee8ee31255595293a9906b_Image_30.jpeg,did not like,4.942172136,,,,,,,,,,,,,
,,,,,,space,0.0865,NAN,,NAN,,0,101,101,101,1,102,Taylor,Rej,Participant_Images/5dee8ee31255595293a9906b/5dee8ee31255595293a9906b_Images/5dee8ee31255595293a9906b_Image_20.jpeg,liked,2.50187214,,,,,,,,,,,,,
,,,,,,space,1.7354,NAN,,NAN,,0,102,102,102,1,103,Taylor,Rej,Participant_Images/5dee8ee31255595293a9906b/5dee8ee31255595293a9906b_Images/5dee8ee31255595293a9906b_Image_11.jpeg,liked,2.071164779,,,,,,,,,,,,,
,,,,,,space,0.4126,NAN,,NAN,,0,103,103,103,1,104,Taylor,Rej,Participant_Images/5dee8ee31255595293a9906b/5dee8ee31255595293a9906b_Images/5dee8ee31255595293a9906b_Image_27.jpeg,did not like,5.336503566,,,,,,,,,,,,,
,,,,,,,,,,,,,,,,,,,,,,,c,0,space,2.9884,0,0,0,0,1,1.601,,,
,,,,,,,,NAN,,NAN,,0,104,104,104,1,105,Taylor,Rej,Participant_Images/5dee8ee31255595293a9906b/5dee8ee31255595293a9906b_Images/5dee8ee31255595293a9906b_Image_15.jpeg,did not like,2.642157193,,,,,,,,,,,,,
,,,,,,space,0.4097,NAN,,NAN,,0,105,105,105,1,106,Taylor,Rej,Participant_Images/5dee8ee31255595293a9906b/5dee8ee31255595293a9906b_Images/5dee8ee31255595293a9906b_Image_3.jpeg,liked,4.456234322,,,,,,,,,,,,,
,,,,,,space,0.7682,NAN,,NAN,,0,106,106,106,1,107,Taylor,Rej,Participant_Images/5dee8ee31255595293a9906b/5dee8ee31255595293a9906b_Images/5dee8ee31255595293a9906b_Image_12.jpeg,did not like,4.438512181,,,,,,,,,,,,,
,,,,,,space,2.361,NAN,,NAN,,0,107,107,107,1,108,Taylor,Rej,Participant_Images/5dee8ee31255595293a9906b/5dee8ee31255595293a9906b_Images/5dee8ee31255595293a9906b_Image_17.jpeg,did not like,2.682944783,,,,,,,,,,,,,
,,,,,,space,0.9426,NAN,,NAN,,0,108,108,108,1,109,Taylor,Rej,Participant_Images/5dee8ee31255595293a9906b/5dee8ee31255595293a9906b_Images/5dee8ee31255595293a9906b_Image_16.jpeg,did not like,4.51984296,,,,,,,,,,,,,
,,,,,,,,,,,,,,,,,,,,,,,,999,space,1.8021,0,0,0,0,1,,,,
,,,,,,,,NAN,,NAN,,0,109,109,109,1,110,Taylor,Rej,Participant_Images/5dee8ee31255595293a9906b/5dee8ee31255595293a9906b_Images/5dee8ee31255595293a9906b_Image_22.jpeg,did not like,3.195382774,,,,,,,,,,,,,
,,,,,,space,0.462,NAN,,NAN,,0,110,110,110,1,111,Taylor,Rej,Participant_Images/5dee8ee31255595293a9906b/5dee8ee31255595293a9906b_Images/5dee8ee31255595293a9906b_Image_8.jpeg,did not like,1.779333479,,,,,,,,,,,,,
,,,,,,space,0.5247,NAN,,NAN,,0,111,111,111,1,112,Taylor,Rej,Participant_Images/5dee8ee31255595293a9906b/5dee8ee31255595293a9906b_Images/5dee8ee31255595293a9906b_Image_6.jpeg,did not like,4.312468682,,,,,,,,,,,,,
,,,,,,space,0.2958,NAN,,NAN,,0,112,112,112,1,113,Taylor,Rej,Participant_Images/5dee8ee31255595293a9906b/5dee8ee31255595293a9906b_Images/5dee8ee31255595293a9906b_Image_10.jpeg,liked,4.940433059,,,,,,,,,,,,,
,,,,,,space,0.5099,NAN,,NAN,,0,113,113,113,1,114,Taylor,Rej,Participant_Images/5dee8ee31255595293a9906b/5dee8ee31255595293a9906b_Images/5dee8ee31255595293a9906b_Image_1.jpeg,did not like,2.7105123,,,,,,,,,,,,,
,,,,,,,,,,,,,,,,,,,,,,,c,0,space,2.6245,0,0,0,0,1,1.1721,,,
,,,,,,,,NAN,,NAN,,0,114,114,114,1,115,Taylor,Rej,Participant_Images/5dee8ee31255595293a9906b/5dee8ee31255595293a9906b_Images/5dee8ee31255595293a9906b_Image_7.jpeg,did not like,3.602308302,,,,,,,,,,,,,
,,,,,,space,2.3676,NAN,,NAN,,0,115,115,115,1,116,Taylor,Rej,Participant_Images/5dee8ee31255595293a9906b/5dee8ee31255595293a9906b_Images/5dee8ee31255595293a9906b_Image_28.jpeg,did not like,4.106391878,,,,,,,,,,,,,
,,,,,,space,0.1269,NAN,,NAN,,0,116,116,116,1,117,Taylor,Rej,Participant_Images/5dee8ee31255595293a9906b/5dee8ee31255595293a9906b_Images/5dee8ee31255595293a9906b_Image_2.jpeg,liked,3.799433026,,,,,,,,,,,,,
,,,,,,space,1.4865,NAN,,NAN,,0,117,117,117,1,118,Taylor,Rej,Participant_Images/5dee8ee31255595293a9906b/5dee8ee31255595293a9906b_Images/5dee8ee31255595293a9906b_Image_18.jpeg,did not like,5.246980764,,,,,,,,,,,,,
,,,,,,space,0.6747,NAN,,NAN,,0,118,118,118,1,119,Taylor,Rej,Participant_Images/5dee8ee31255595293a9906b/5dee8ee31255595293a9906b_Images/5dee8ee31255595293a9906b_Image_26.jpeg,liked,3.30081769,,,,,,,,,,,,,
,,,,,,,,,,,,,,,,,,,,,,,c,0,space,0.5187,0,0,0,0,1,0.7908,,,
,,,,,,,,2,,2,,0,119,119,119,1,120,Taylor,Rej,Participant_Images/5dee8ee31255595293a9906b/5dee8ee31255595293a9906b_Images/5dee8ee31255595293a9906b_Image_25.jpeg,did not like,1.661473164,,,,,,,,,,,,,
,,,,space,0.6653,space,0.0005,NAN,,NAN,,0,120,120,120,1,121,Sam,Acc,Participant_Images/5dee8ee31255595293a9906b/5dee8ee31255595293a9906b_Images/5dee8ee31255595293a9906b_Image_7.jpeg,did not like,3.613205605,,,,,,,,,,,,,
,,,,,,space,0.172,NAN,,NAN,,0,121,121,121,1,122,Sam,Acc,Participant_Images/5dee8ee31255595293a9906b/5dee8ee31255595293a9906b_Images/5dee8ee31255595293a9906b_Image_14.jpeg,liked,4.988446431,,,,,,,,,,,,,
,,,,,,space,0.4114,NAN,,NAN,,0,122,122,122,1,123,Sam,Acc,Participant_Images/5dee8ee31255595293a9906b/5dee8ee31255595293a9906b_Images/5dee8ee31255595293a9906b_Image_25.jpeg,liked,3.470791822,,,,,,,,,,,,,
,,,,,,space,0.8372,NAN,,NAN,,0,123,123,123,1,124,Sam,Acc,Participant_Images/5dee8ee31255595293a9906b/5dee8ee31255595293a9906b_Images/5dee8ee31255595293a9906b_Image_10.jpeg,did not like,3.820572462,,,,,,,,,,,,,
,,,,,,,,,,,,,,,,,,,,,,,c,0,space,1.182,0,0,0,0,1,0.654,,,
,,,,,,,,NAN,,NAN,,0,124,124,124,1,125,Sam,Acc,Participant_Images/5dee8ee31255595293a9906b/5dee8ee31255595293a9906b_Images/5dee8ee31255595293a9906b_Image_3.jpeg,liked,2.455989137,,,,,,,,,,,,,
,,,,,,space,0.3887,NAN,,NAN,,0,125,125,125,1,126,Sam,Acc,Participant_Images/5dee8ee31255595293a9906b/5dee8ee31255595293a9906b_Images/5dee8ee31255595293a9906b_Image_19.jpeg,liked,3.79605092,,,,,,,,,,,,,
,,,,,,space,0.5993,NAN,,NAN,,0,126,126,126,1,127,Sam,Acc,Participant_Images/5dee8ee31255595293a9906b/5dee8ee31255595293a9906b_Images/5dee8ee31255595293a9906b_Image_21.jpeg,liked,3.562416326,,,,,,,,,,,,,
,,,,,,space,0.5899,NAN,,NAN,,0,127,127,127,1,128,Sam,Acc,Participant_Images/5dee8ee31255595293a9906b/5dee8ee31255595293a9906b_Images/5dee8ee31255595293a9906b_Image_27.jpeg,did not like,2.843822497,,,,,,,,,,,,,
,,,,,,space,0.5532,NAN,,NAN,,0,128,128,128,1,129,Sam,Acc,Participant_Images/5dee8ee31255595293a9906b/5dee8ee31255595293a9906b_Images/5dee8ee31255595293a9906b_Image_16.jpeg,did not like,3.546495948,,,,,,,,,,,,,
,,,,,,,,,,,,,,,,,,,,,,,c,0,space,3.0773,0,0,0,0,1,0.988,,,
,,,,,,,,NAN,,NAN,,0,129,129,129,1,130,Sam,Acc,Participant_Images/5dee8ee31255595293a9906b/5dee8ee31255595293a9906b_Images/5dee8ee31255595293a9906b_Image_29.jpeg,liked,1.672012706,,,,,,,,,,,,,
,,,,,,space,0.6081,NAN,,NAN,,0,130,130,130,1,131,Sam,Acc,Participant_Images/5dee8ee31255595293a9906b/5dee8ee31255595293a9906b_Images/5dee8ee31255595293a9906b_Image_4.jpeg,did not like,4.942172136,,,,,,,,,,,,,
,,,,,,space,0.1838,NAN,,NAN,,0,131,131,131,1,132,Sam,Acc,Participant_Images/5dee8ee31255595293a9906b/5dee8ee31255595293a9906b_Images/5dee8ee31255595293a9906b_Image_11.jpeg,liked,2.50187214,,,,,,,,,,,,,
,,,,,,space,0.568,NAN,,NAN,,0,132,132,132,1,133,Sam,Acc,Participant_Images/5dee8ee31255595293a9906b/5dee8ee31255595293a9906b_Images/5dee8ee31255595293a9906b_Image_26.jpeg,liked,2.071164779,,,,,,,,,,,,,
,,,,,,space,0.4694,NAN,,NAN,,0,133,133,133,1,134,Sam,Acc,Participant_Images/5dee8ee31255595293a9906b/5dee8ee31255595293a9906b_Images/5dee8ee31255595293a9906b_Image_2.jpeg,did not like,5.336503566,,,,,,,,,,,,,
,,,,,,,,,,,,,,,,,,,,,,,c,0,space,1.854,0,0,0,0,1,0.7818,,,
,,,,,,,,NAN,,NAN,,0,134,134,134,1,135,Sam,Acc,Participant_Images/5dee8ee31255595293a9906b/5dee8ee31255595293a9906b_Images/5dee8ee31255595293a9906b_Image_12.jpeg,liked,2.642157193,,,,,,,,,,,,,
,,,,,,space,1.1617,NAN,,NAN,,0,135,135,135,1,136,Sam,Acc,Participant_Images/5dee8ee31255595293a9906b/5dee8ee31255595293a9906b_Images/5dee8ee31255595293a9906b_Image_6.jpeg,liked,4.456234322,,,,,,,,,,,,,
,,,,,,space,0.6441,NAN,,NAN,,0,136,136,136,1,137,Sam,Acc,Participant_Images/5dee8ee31255595293a9906b/5dee8ee31255595293a9906b_Images/5dee8ee31255595293a9906b_Image_23.jpeg,did not like,4.438512181,,,,,,,,,,,,,
,,,,,,space,0.5752,NAN,,NAN,,0,137,137,137,1,138,Sam,Acc,Participant_Images/5dee8ee31255595293a9906b/5dee8ee31255595293a9906b_Images/5dee8ee31255595293a9906b_Image_8.jpeg,liked,2.682944783,,,,,,,,,,,,,
,,,,,,space,0.7154,NAN,,NAN,,0,138,138,138,1,139,Sam,Acc,Participant_Images/5dee8ee31255595293a9906b/5dee8ee31255595293a9906b_Images/5dee8ee31255595293a9906b_Image_15.jpeg,liked,4.51984296,,,,,,,,,,,,,
,,,,,,,,,,,,,,,,,,,,,,,c,0,space,1.5745,0,0,0,0,1,0.8576,,,
,,,,,,,,NAN,,NAN,,0,139,139,139,1,140,Sam,Acc,Participant_Images/5dee8ee31255595293a9906b/5dee8ee31255595293a9906b_Images/5dee8ee31255595293a9906b_Image_13.jpeg,liked,3.195382774,,,,,,,,,,,,,
,,,,,,space,0.5583,NAN,,NAN,,0,140,140,140,1,141,Sam,Acc,Participant_Images/5dee8ee31255595293a9906b/5dee8ee31255595293a9906b_Images/5dee8ee31255595293a9906b_Image_20.jpeg,liked,1.779333479,,,,,,,,,,,,,
,,,,,,space,0.5273,NAN,,NAN,,0,141,141,141,1,142,Sam,Acc,Participant_Images/5dee8ee31255595293a9906b/5dee8ee31255595293a9906b_Images/5dee8ee31255595293a9906b_Image_22.jpeg,did not like,4.312468682,,,,,,,,,,,,,
,,,,,,space,0.2335,NAN,,NAN,,0,142,142,142,1,143,Sam,Acc,Participant_Images/5dee8ee31255595293a9906b/5dee8ee31255595293a9906b_Images/5dee8ee31255595293a9906b_Image_17.jpeg,liked,4.940433059,,,,,,,,,,,,,
,,,,,,space,2.0413,NAN,,NAN,,0,143,143,143,1,144,Sam,Acc,Participant_Images/5dee8ee31255595293a9906b/5dee8ee31255595293a9906b_Images/5dee8ee31255595293a9906b_Image_9.jpeg,liked,2.7105123,,,,,,,,,,,,,
,,,,,,,,,,,,,,,,,,,,,,,c,0,space,0.6614,0,0,0,0,1,1.0825,,,
,,,,,,,,NAN,,NAN,,0,144,144,144,1,145,Sam,Acc,Participant_Images/5dee8ee31255595293a9906b/5dee8ee31255595293a9906b_Images/5dee8ee31255595293a9906b_Image_18.jpeg,liked,3.602308302,,,,,,,,,,,,,
,,,,,,space,4.1065,NAN,,NAN,,0,145,145,145,1,146,Sam,Acc,Participant_Images/5dee8ee31255595293a9906b/5dee8ee31255595293a9906b_Images/5dee8ee31255595293a9906b_Image_30.jpeg,liked,4.106391878,,,,,,,,,,,,,
,,,,,,space,0.1808,NAN,,NAN,,0,146,146,146,1,147,Sam,Acc,Participant_Images/5dee8ee31255595293a9906b/5dee8ee31255595293a9906b_Images/5dee8ee31255595293a9906b_Image_28.jpeg,liked,3.799433026,,,,,,,,,,,,,
,,,,,,space,0.5371,NAN,,NAN,,0,147,147,147,1,148,Sam,Acc,Participant_Images/5dee8ee31255595293a9906b/5dee8ee31255595293a9906b_Images/5dee8ee31255595293a9906b_Image_1.jpeg,liked,5.246980764,,,,,,,,,,,,,
,,,,,,space,0.5827,NAN,,NAN,,0,148,148,148,1,149,Sam,Acc,Participant_Images/5dee8ee31255595293a9906b/5dee8ee31255595293a9906b_Images/5dee8ee31255595293a9906b_Image_5.jpeg,did not like,3.30081769,,,,,,,,,,,,,
,,,,,,,,,,,,,,,,,,,,,,,c,0,space,0.4872,0,0,0,0,1,0.5558,,,
,,,,,,,,3,,2,,0,149,149,149,1,150,Sam,Acc,Participant_Images/5dee8ee31255595293a9906b/5dee8ee31255595293a9906b_Images/5dee8ee31255595293a9906b_Image_24.jpeg,liked,1.661473164,,,,,,,,,,,,,
,,,,,,,,,,,,,,,,,,,,,,,,,,,,,,,,,,space,1.9248
