endwelcomescreen_keys.keys,endwelcomescreen_keys.rt,endinstructionscreen_keys.keys,endinstructionscreen_keys.rt,endpartnermatch_keys.keys,endpartnermatch_keys.rt,sharenextphoto_key.keys,sharenextphoto_key.rt,salience_rating,key_resp.keys,stress_level,stresslevel_keypress.keys,entiretaskloop.thisRepN,entiretaskloop.thisTrialN,entiretaskloop.thisN,entiretaskloop.thisIndex,entiretaskloop.ran,TrialNumber,Partner,Condition,Photos,Feedback,FeedbackWait,choice_keys.keys,playlottery,resumeafterlottery_keys.keys,resumeafterlottery_keys.rt,lotteryloop.thisRepN,lotteryloop.thisTrialN,lotteryloop.thisN,lotteryloop.thisIndex,lotteryloop.ran,choice_keys.rt,lotteryguess_keys.keys,lotteryguess_keys.rt,end_screen_keys.keys,end_screen_keys.rt
space,3.1369,,,,,,,,,,,,,,,,,,,,,,,,,,,,,,,,,,,
,,,,,,,,,,,,,,,,,,,,,,,,,,,,,,,,,,,,
,,space,532.8395,,,,,,,,,,,,,,,,,,,,,,,,,,,,,,,,,
,,,,space,1.4582,space,1.2985,NAN,,NAN,,0,0,0,0,1,1,Riley,Rej,Participant_Images/5f16f559325a640008bb9a07/5f16f559325a640008bb9a07_Images/5f16f559325a640008bb9a07_Image_14.jpeg,did not like,3.613205605,,,,,,,,,,,,,,
,,,,,,space,0.5505,NAN,,NAN,,0,1,1,1,1,2,Riley,Rej,Participant_Images/5f16f559325a640008bb9a07/5f16f559325a640008bb9a07_Images/5f16f559325a640008bb9a07_Image_9.jpeg,did not like,4.988446431,,,,,,,,,,,,,,
,,,,,,space,0.4377,NAN,,NAN,,0,2,2,2,1,3,Riley,Rej,Participant_Images/5f16f559325a640008bb9a07/5f16f559325a640008bb9a07_Images/5f16f559325a640008bb9a07_Image_28.jpeg,did not like,3.470791822,,,,,,,,,,,,,,
,,,,,,space,0.6557,NAN,,NAN,,0,3,3,3,1,4,Riley,Rej,Participant_Images/5f16f559325a640008bb9a07/5f16f559325a640008bb9a07_Images/5f16f559325a640008bb9a07_Image_5.jpeg,liked,3.820572462,,,,,,,,,,,,,,
,,,,,,,,,,,,,,,,,,,,,,,,999,space,2.4482,0,0,0,0,1,,,,,
,,,,,,,,NAN,,NAN,,0,4,4,4,1,5,Riley,Rej,Participant_Images/5f16f559325a640008bb9a07/5f16f559325a640008bb9a07_Images/5f16f559325a640008bb9a07_Image_25.jpeg,did not like,2.455989137,,,,,,,,,,,,,,
,,,,,,space,0.3866,NAN,,NAN,,0,5,5,5,1,6,Riley,Rej,Participant_Images/5f16f559325a640008bb9a07/5f16f559325a640008bb9a07_Images/5f16f559325a640008bb9a07_Image_13.jpeg,did not like,3.79605092,,,,,,,,,,,,,,
,,,,,,space,0.5202,NAN,,NAN,,0,6,6,6,1,7,Riley,Rej,Participant_Images/5f16f559325a640008bb9a07/5f16f559325a640008bb9a07_Images/5f16f559325a640008bb9a07_Image_7.jpeg,did not like,3.562416326,,,,,,,,,,,,,,
,,,,,,space,0.5702,NAN,,NAN,,0,7,7,7,1,8,Riley,Rej,Participant_Images/5f16f559325a640008bb9a07/5f16f559325a640008bb9a07_Images/5f16f559325a640008bb9a07_Image_27.jpeg,did not like,2.843822497,,,,,,,,,,,,,,
,,,,,,space,0.534,NAN,,NAN,,0,8,8,8,1,9,Riley,Rej,Participant_Images/5f16f559325a640008bb9a07/5f16f559325a640008bb9a07_Images/5f16f559325a640008bb9a07_Image_21.jpeg,did not like,3.546495948,,,,,,,,,,,,,,
,,,,,,,,,,,,,,,,,,,,,,,s,1,space,0.5811,0,0,0,0,1,1.0155,h,2.5717,,
,,,,,,,,NAN,,NAN,,0,9,9,9,1,10,Riley,Rej,Participant_Images/5f16f559325a640008bb9a07/5f16f559325a640008bb9a07_Images/5f16f559325a640008bb9a07_Image_16.jpeg,did not like,1.672012706,,,,,,,,,,,,,,
,,,,,,space,0.7034,NAN,,NAN,,0,10,10,10,1,11,Riley,Rej,Participant_Images/5f16f559325a640008bb9a07/5f16f559325a640008bb9a07_Images/5f16f559325a640008bb9a07_Image_10.jpeg,liked,4.942172136,,,,,,,,,,,,,,
,,,,,,space,0.7504,NAN,,NAN,,0,11,11,11,1,12,Riley,Rej,Participant_Images/5f16f559325a640008bb9a07/5f16f559325a640008bb9a07_Images/5f16f559325a640008bb9a07_Image_2.jpeg,did not like,2.50187214,,,,,,,,,,,,,,
,,,,,,space,0.4669,NAN,,NAN,,0,12,12,12,1,13,Riley,Rej,Participant_Images/5f16f559325a640008bb9a07/5f16f559325a640008bb9a07_Images/5f16f559325a640008bb9a07_Image_22.jpeg,liked,2.071164779,,,,,,,,,,,,,,
,,,,,,space,0.6301,NAN,,NAN,,0,13,13,13,1,14,Riley,Rej,Participant_Images/5f16f559325a640008bb9a07/5f16f559325a640008bb9a07_Images/5f16f559325a640008bb9a07_Image_1.jpeg,did not like,5.336503566,,,,,,,,,,,,,,
,,,,,,,,,,,,,,,,,,,,,,,s,1,space,0.5508,0,0,0,0,1,1.0101,h,0.9967,,
,,,,,,,,NAN,,NAN,,0,14,14,14,1,15,Riley,Rej,Participant_Images/5f16f559325a640008bb9a07/5f16f559325a640008bb9a07_Images/5f16f559325a640008bb9a07_Image_26.jpeg,did not like,2.642157193,,,,,,,,,,,,,,
,,,,,,space,0.4043,NAN,,NAN,,0,15,15,15,1,16,Riley,Rej,Participant_Images/5f16f559325a640008bb9a07/5f16f559325a640008bb9a07_Images/5f16f559325a640008bb9a07_Image_8.jpeg,did not like,4.456234322,,,,,,,,,,,,,,
,,,,,,space,0.3673,NAN,,NAN,,0,16,16,16,1,17,Riley,Rej,Participant_Images/5f16f559325a640008bb9a07/5f16f559325a640008bb9a07_Images/5f16f559325a640008bb9a07_Image_15.jpeg,did not like,4.438512181,,,,,,,,,,,,,,
,,,,,,space,0.4765,NAN,,NAN,,0,17,17,17,1,18,Riley,Rej,Participant_Images/5f16f559325a640008bb9a07/5f16f559325a640008bb9a07_Images/5f16f559325a640008bb9a07_Image_11.jpeg,liked,2.682944783,,,,,,,,,,,,,,
,,,,,,space,0.6004,NAN,,NAN,,0,18,18,18,1,19,Riley,Rej,Participant_Images/5f16f559325a640008bb9a07/5f16f559325a640008bb9a07_Images/5f16f559325a640008bb9a07_Image_29.jpeg,did not like,4.51984296,,,,,,,,,,,,,,
,,,,,,,,,,,,,,,,,,,,,,,s,1,space,0.6042,0,0,0,0,1,0.885,h,0.9572,,
,,,,,,,,NAN,,NAN,,0,19,19,19,1,20,Riley,Rej,Participant_Images/5f16f559325a640008bb9a07/5f16f559325a640008bb9a07_Images/5f16f559325a640008bb9a07_Image_3.jpeg,liked,3.195382774,,,,,,,,,,,,,,
,,,,,,space,0.6996,NAN,,NAN,,0,20,20,20,1,21,Riley,Rej,Participant_Images/5f16f559325a640008bb9a07/5f16f559325a640008bb9a07_Images/5f16f559325a640008bb9a07_Image_17.jpeg,liked,1.779333479,,,,,,,,,,,,,,
,,,,,,space,0.5358,NAN,,NAN,,0,21,21,21,1,22,Riley,Rej,Participant_Images/5f16f559325a640008bb9a07/5f16f559325a640008bb9a07_Images/5f16f559325a640008bb9a07_Image_4.jpeg,liked,4.312468682,,,,,,,,,,,,,,
,,,,,,space,0.4917,NAN,,NAN,,0,22,22,22,1,23,Riley,Rej,Participant_Images/5f16f559325a640008bb9a07/5f16f559325a640008bb9a07_Images/5f16f559325a640008bb9a07_Image_12.jpeg,did not like,4.940433059,,,,,,,,,,,,,,
,,,,,,space,0.5033,NAN,,NAN,,0,23,23,23,1,24,Riley,Rej,Participant_Images/5f16f559325a640008bb9a07/5f16f559325a640008bb9a07_Images/5f16f559325a640008bb9a07_Image_30.jpeg,did not like,2.7105123,,,,,,,,,,,,,,
,,,,,,,,,,,,,,,,,,,,,,,s,1,space,0.6572,0,0,0,0,1,0.5927,h,0.368,,
,,,,,,,,NAN,,NAN,,0,24,24,24,1,25,Riley,Rej,Participant_Images/5f16f559325a640008bb9a07/5f16f559325a640008bb9a07_Images/5f16f559325a640008bb9a07_Image_20.jpeg,did not like,3.602308302,,,,,,,,,,,,,,
,,,,,,space,0.4463,NAN,,NAN,,0,25,25,25,1,26,Riley,Rej,Participant_Images/5f16f559325a640008bb9a07/5f16f559325a640008bb9a07_Images/5f16f559325a640008bb9a07_Image_23.jpeg,did not like,4.106391878,,,,,,,,,,,,,,
,,,,,,space,0.4536,NAN,,NAN,,0,26,26,26,1,27,Riley,Rej,Participant_Images/5f16f559325a640008bb9a07/5f16f559325a640008bb9a07_Images/5f16f559325a640008bb9a07_Image_18.jpeg,did not like,3.799433026,,,,,,,,,,,,,,
,,,,,,space,0.3867,NAN,,NAN,,0,27,27,27,1,28,Riley,Rej,Participant_Images/5f16f559325a640008bb9a07/5f16f559325a640008bb9a07_Images/5f16f559325a640008bb9a07_Image_6.jpeg,liked,5.246980764,,,,,,,,,,,,,,
,,,,,,space,0.4534,NAN,,NAN,,0,28,28,28,1,29,Riley,Rej,Participant_Images/5f16f559325a640008bb9a07/5f16f559325a640008bb9a07_Images/5f16f559325a640008bb9a07_Image_19.jpeg,liked,3.30081769,,,,,,,,,,,,,,
,,,,,,,,,,,,,,,,,,,,,,,s,1,space,0.392,0,0,0,0,1,0.6667,h,0.4132,,
,,,,,,,,1,,1,,0,29,29,29,1,30,Riley,Rej,Participant_Images/5f16f559325a640008bb9a07/5f16f559325a640008bb9a07_Images/5f16f559325a640008bb9a07_Image_24.jpeg,did not like,1.661473164,,,,,,,,,,,,,,
,,,,space,1.1451,space,0.4858,NAN,,NAN,,0,30,30,30,1,31,Taylor,Acc,Participant_Images/5f16f559325a640008bb9a07/5f16f559325a640008bb9a07_Images/5f16f559325a640008bb9a07_Image_2.jpeg,liked,3.613205605,,,,,,,,,,,,,,
,,,,,,space,0.5531,NAN,,NAN,,0,31,31,31,1,32,Taylor,Acc,Participant_Images/5f16f559325a640008bb9a07/5f16f559325a640008bb9a07_Images/5f16f559325a640008bb9a07_Image_21.jpeg,liked,4.988446431,,,,,,,,,,,,,,
,,,,,,space,0.855,NAN,,NAN,,0,32,32,32,1,33,Taylor,Acc,Participant_Images/5f16f559325a640008bb9a07/5f16f559325a640008bb9a07_Images/5f16f559325a640008bb9a07_Image_27.jpeg,liked,3.470791822,,,,,,,,,,,,,,
,,,,,,space,0.8192,NAN,,NAN,,0,33,33,33,1,34,Taylor,Acc,Participant_Images/5f16f559325a640008bb9a07/5f16f559325a640008bb9a07_Images/5f16f559325a640008bb9a07_Image_6.jpeg,liked,3.820572462,,,,,,,,,,,,,,
,,,,,,,,,,,,,,,,,,,,,,,s,1,space,0.3696,0,0,0,0,1,0.7182,h,0.4116,,
,,,,,,,,NAN,,NAN,,0,34,34,34,1,35,Taylor,Acc,Participant_Images/5f16f559325a640008bb9a07/5f16f559325a640008bb9a07_Images/5f16f559325a640008bb9a07_Image_7.jpeg,did not like,2.455989137,,,,,,,,,,,,,,
,,,,,,space,0.4175,NAN,,NAN,,0,35,35,35,1,36,Taylor,Acc,Participant_Images/5f16f559325a640008bb9a07/5f16f559325a640008bb9a07_Images/5f16f559325a640008bb9a07_Image_24.jpeg,liked,3.79605092,,,,,,,,,,,,,,
,,,,,,space,0.503,NAN,,NAN,,0,36,36,36,1,37,Taylor,Acc,Participant_Images/5f16f559325a640008bb9a07/5f16f559325a640008bb9a07_Images/5f16f559325a640008bb9a07_Image_4.jpeg,liked,3.562416326,,,,,,,,,,,,,,
,,,,,,space,0.4928,NAN,,NAN,,0,37,37,37,1,38,Taylor,Acc,Participant_Images/5f16f559325a640008bb9a07/5f16f559325a640008bb9a07_Images/5f16f559325a640008bb9a07_Image_10.jpeg,liked,2.843822497,,,,,,,,,,,,,,
,,,,,,space,0.437,NAN,,NAN,,0,38,38,38,1,39,Taylor,Acc,Participant_Images/5f16f559325a640008bb9a07/5f16f559325a640008bb9a07_Images/5f16f559325a640008bb9a07_Image_14.jpeg,liked,3.546495948,,,,,,,,,,,,,,
,,,,,,,,,,,,,,,,,,,,,,,s,1,space,0.6589,0,0,0,0,1,0.6334,h,0.5071,,
,,,,,,,,NAN,,NAN,,0,39,39,39,1,40,Taylor,Acc,Participant_Images/5f16f559325a640008bb9a07/5f16f559325a640008bb9a07_Images/5f16f559325a640008bb9a07_Image_8.jpeg,liked,1.672012706,,,,,,,,,,,,,,
,,,,,,space,0.4838,NAN,,NAN,,0,40,40,40,1,41,Taylor,Acc,Participant_Images/5f16f559325a640008bb9a07/5f16f559325a640008bb9a07_Images/5f16f559325a640008bb9a07_Image_5.jpeg,did not like,4.942172136,,,,,,,,,,,,,,
,,,,,,space,0.5712,NAN,,NAN,,0,41,41,41,1,42,Taylor,Acc,Participant_Images/5f16f559325a640008bb9a07/5f16f559325a640008bb9a07_Images/5f16f559325a640008bb9a07_Image_20.jpeg,did not like,2.50187214,,,,,,,,,,,,,,
,,,,,,space,0.5371,NAN,,NAN,,0,42,42,42,1,43,Taylor,Acc,Participant_Images/5f16f559325a640008bb9a07/5f16f559325a640008bb9a07_Images/5f16f559325a640008bb9a07_Image_18.jpeg,liked,2.071164779,,,,,,,,,,,,,,
,,,,,,space,0.3761,NAN,,NAN,,0,43,43,43,1,44,Taylor,Acc,Participant_Images/5f16f559325a640008bb9a07/5f16f559325a640008bb9a07_Images/5f16f559325a640008bb9a07_Image_23.jpeg,did not like,5.336503566,,,,,,,,,,,,,,
,,,,,,,,,,,,,,,,,,,,,,,s,1,space,0.5503,0,0,0,0,1,0.7314,h,0.4207,,
,,,,,,,,NAN,,NAN,,0,44,44,44,1,45,Taylor,Acc,Participant_Images/5f16f559325a640008bb9a07/5f16f559325a640008bb9a07_Images/5f16f559325a640008bb9a07_Image_26.jpeg,liked,2.642157193,,,,,,,,,,,,,,
,,,,,,space,0.4209,NAN,,NAN,,0,45,45,45,1,46,Taylor,Acc,Participant_Images/5f16f559325a640008bb9a07/5f16f559325a640008bb9a07_Images/5f16f559325a640008bb9a07_Image_13.jpeg,did not like,4.456234322,,,,,,,,,,,,,,
,,,,,,space,0.5333,NAN,,NAN,,0,46,46,46,1,47,Taylor,Acc,Participant_Images/5f16f559325a640008bb9a07/5f16f559325a640008bb9a07_Images/5f16f559325a640008bb9a07_Image_11.jpeg,liked,4.438512181,,,,,,,,,,,,,,
,,,,,,space,0.5512,NAN,,NAN,,0,47,47,47,1,48,Taylor,Acc,Participant_Images/5f16f559325a640008bb9a07/5f16f559325a640008bb9a07_Images/5f16f559325a640008bb9a07_Image_3.jpeg,liked,2.682944783,,,,,,,,,,,,,,
,,,,,,space,0.4548,NAN,,NAN,,0,48,48,48,1,49,Taylor,Acc,Participant_Images/5f16f559325a640008bb9a07/5f16f559325a640008bb9a07_Images/5f16f559325a640008bb9a07_Image_16.jpeg,liked,4.51984296,,,,,,,,,,,,,,
,,,,,,,,,,,,,,,,,,,,,,,s,1,space,0.786,0,0,0,0,1,0.6114,h,0.3512,,
,,,,,,,,NAN,,NAN,,0,49,49,49,1,50,Taylor,Acc,Participant_Images/5f16f559325a640008bb9a07/5f16f559325a640008bb9a07_Images/5f16f559325a640008bb9a07_Image_28.jpeg,liked,3.195382774,,,,,,,,,,,,,,
,,,,,,space,0.571,NAN,,NAN,,0,50,50,50,1,51,Taylor,Acc,Participant_Images/5f16f559325a640008bb9a07/5f16f559325a640008bb9a07_Images/5f16f559325a640008bb9a07_Image_12.jpeg,liked,1.779333479,,,,,,,,,,,,,,
,,,,,,space,0.5963,NAN,,NAN,,0,51,51,51,1,52,Taylor,Acc,Participant_Images/5f16f559325a640008bb9a07/5f16f559325a640008bb9a07_Images/5f16f559325a640008bb9a07_Image_19.jpeg,liked,4.312468682,,,,,,,,,,,,,,
,,,,,,space,0.401,NAN,,NAN,,0,52,52,52,1,53,Taylor,Acc,Participant_Images/5f16f559325a640008bb9a07/5f16f559325a640008bb9a07_Images/5f16f559325a640008bb9a07_Image_25.jpeg,liked,4.940433059,,,,,,,,,,,,,,
,,,,,,space,0.5877,NAN,,NAN,,0,53,53,53,1,54,Taylor,Acc,Participant_Images/5f16f559325a640008bb9a07/5f16f559325a640008bb9a07_Images/5f16f559325a640008bb9a07_Image_29.jpeg,did not like,2.7105123,,,,,,,,,,,,,,
,,,,,,,,,,,,,,,,,,,,,,,s,1,space,0.4031,0,0,0,0,1,0.648,h,0.4128,,
,,,,,,,,NAN,,NAN,,0,54,54,54,1,55,Taylor,Acc,Participant_Images/5f16f559325a640008bb9a07/5f16f559325a640008bb9a07_Images/5f16f559325a640008bb9a07_Image_22.jpeg,liked,3.602308302,,,,,,,,,,,,,,
,,,,,,space,0.4709,NAN,,NAN,,0,55,55,55,1,56,Taylor,Acc,Participant_Images/5f16f559325a640008bb9a07/5f16f559325a640008bb9a07_Images/5f16f559325a640008bb9a07_Image_17.jpeg,liked,4.106391878,,,,,,,,,,,,,,
,,,,,,space,0.4543,NAN,,NAN,,0,56,56,56,1,57,Taylor,Acc,Participant_Images/5f16f559325a640008bb9a07/5f16f559325a640008bb9a07_Images/5f16f559325a640008bb9a07_Image_30.jpeg,did not like,3.799433026,,,,,,,,,,,,,,
,,,,,,space,0.6021,NAN,,NAN,,0,57,57,57,1,58,Taylor,Acc,Participant_Images/5f16f559325a640008bb9a07/5f16f559325a640008bb9a07_Images/5f16f559325a640008bb9a07_Image_15.jpeg,did not like,5.246980764,,,,,,,,,,,,,,
,,,,,,space,0.5027,NAN,,NAN,,0,58,58,58,1,59,Taylor,Acc,Participant_Images/5f16f559325a640008bb9a07/5f16f559325a640008bb9a07_Images/5f16f559325a640008bb9a07_Image_1.jpeg,did not like,3.30081769,,,,,,,,,,,,,,
,,,,,,,,,,,,,,,,,,,,,,,s,1,space,0.4851,0,0,0,0,1,0.6676,h,0.3638,,
,,,,,,,,3,,1,,0,59,59,59,1,60,Taylor,Acc,Participant_Images/5f16f559325a640008bb9a07/5f16f559325a640008bb9a07_Images/5f16f559325a640008bb9a07_Image_9.jpeg,liked,1.661473164,,,,,,,,,,,,,,
,,,,space,1.1418,space,0.5668,NAN,,NAN,,0,60,60,60,1,61,Alex,Acc,Participant_Images/5f16f559325a640008bb9a07/5f16f559325a640008bb9a07_Images/5f16f559325a640008bb9a07_Image_13.jpeg,liked,3.613205605,,,,,,,,,,,,,,
,,,,,,space,0.4199,NAN,,NAN,,0,61,61,61,1,62,Alex,Acc,Participant_Images/5f16f559325a640008bb9a07/5f16f559325a640008bb9a07_Images/5f16f559325a640008bb9a07_Image_15.jpeg,liked,4.988446431,,,,,,,,,,,,,,
,,,,,,space,0.4541,NAN,,NAN,,0,62,62,62,1,63,Alex,Acc,Participant_Images/5f16f559325a640008bb9a07/5f16f559325a640008bb9a07_Images/5f16f559325a640008bb9a07_Image_3.jpeg,liked,3.470791822,,,,,,,,,,,,,,
,,,,,,space,0.4033,NAN,,NAN,,0,63,63,63,1,64,Alex,Acc,Participant_Images/5f16f559325a640008bb9a07/5f16f559325a640008bb9a07_Images/5f16f559325a640008bb9a07_Image_12.jpeg,liked,3.820572462,,,,,,,,,,,,,,
,,,,,,,,,,,,,,,,,,,,,,,s,1,space,0.6175,0,0,0,0,1,0.7003,h,0.3834,,
,,,,,,,,NAN,,NAN,,0,64,64,64,1,65,Alex,Acc,Participant_Images/5f16f559325a640008bb9a07/5f16f559325a640008bb9a07_Images/5f16f559325a640008bb9a07_Image_21.jpeg,did not like,2.455989137,,,,,,,,,,,,,,
,,,,,,space,0.5243,NAN,,NAN,,0,65,65,65,1,66,Alex,Acc,Participant_Images/5f16f559325a640008bb9a07/5f16f559325a640008bb9a07_Images/5f16f559325a640008bb9a07_Image_23.jpeg,did not like,3.79605092,,,,,,,,,,,,,,
,,,,,,space,0.5209,NAN,,NAN,,0,66,66,66,1,67,Alex,Acc,Participant_Images/5f16f559325a640008bb9a07/5f16f559325a640008bb9a07_Images/5f16f559325a640008bb9a07_Image_1.jpeg,did not like,3.562416326,,,,,,,,,,,,,,
,,,,,,space,0.5292,NAN,,NAN,,0,67,67,67,1,68,Alex,Acc,Participant_Images/5f16f559325a640008bb9a07/5f16f559325a640008bb9a07_Images/5f16f559325a640008bb9a07_Image_24.jpeg,liked,2.843822497,,,,,,,,,,,,,,
,,,,,,space,0.4701,NAN,,NAN,,0,68,68,68,1,69,Alex,Acc,Participant_Images/5f16f559325a640008bb9a07/5f16f559325a640008bb9a07_Images/5f16f559325a640008bb9a07_Image_25.jpeg,liked,3.546495948,,,,,,,,,,,,,,
,,,,,,,,,,,,,,,,,,,,,,,s,1,space,0.5873,0,0,0,0,1,0.5986,h,0.3543,,
,,,,,,,,NAN,,NAN,,0,69,69,69,1,70,Alex,Acc,Participant_Images/5f16f559325a640008bb9a07/5f16f559325a640008bb9a07_Images/5f16f559325a640008bb9a07_Image_9.jpeg,liked,1.672012706,,,,,,,,,,,,,,
,,,,,,space,0.4868,NAN,,NAN,,0,70,70,70,1,71,Alex,Acc,Participant_Images/5f16f559325a640008bb9a07/5f16f559325a640008bb9a07_Images/5f16f559325a640008bb9a07_Image_16.jpeg,did not like,4.942172136,,,,,,,,,,,,,,
,,,,,,space,0.5673,NAN,,NAN,,0,71,71,71,1,72,Alex,Acc,Participant_Images/5f16f559325a640008bb9a07/5f16f559325a640008bb9a07_Images/5f16f559325a640008bb9a07_Image_4.jpeg,liked,2.50187214,,,,,,,,,,,,,,
,,,,,,space,0.5203,NAN,,NAN,,0,72,72,72,1,73,Alex,Acc,Participant_Images/5f16f559325a640008bb9a07/5f16f559325a640008bb9a07_Images/5f16f559325a640008bb9a07_Image_27.jpeg,liked,2.071164779,,,,,,,,,,,,,,
,,,,,,space,0.4218,NAN,,NAN,,0,73,73,73,1,74,Alex,Acc,Participant_Images/5f16f559325a640008bb9a07/5f16f559325a640008bb9a07_Images/5f16f559325a640008bb9a07_Image_17.jpeg,liked,5.336503566,,,,,,,,,,,,,,
,,,,,,,,,,,,,,,,,,,,,,,s,1,space,0.4836,0,0,0,0,1,0.8176,h,0.3679,,
,,,,,,,,NAN,,NAN,,0,74,74,74,1,75,Alex,Acc,Participant_Images/5f16f559325a640008bb9a07/5f16f559325a640008bb9a07_Images/5f16f559325a640008bb9a07_Image_28.jpeg,did not like,2.642157193,,,,,,,,,,,,,,
,,,,,,space,0.5209,NAN,,NAN,,0,75,75,75,1,76,Alex,Acc,Participant_Images/5f16f559325a640008bb9a07/5f16f559325a640008bb9a07_Images/5f16f559325a640008bb9a07_Image_29.jpeg,liked,4.456234322,,,,,,,,,,,,,,
,,,,,,space,0.5507,NAN,,NAN,,0,76,76,76,1,77,Alex,Acc,Participant_Images/5f16f559325a640008bb9a07/5f16f559325a640008bb9a07_Images/5f16f559325a640008bb9a07_Image_11.jpeg,liked,4.438512181,,,,,,,,,,,,,,
,,,,,,space,0.5627,NAN,,NAN,,0,77,77,77,1,78,Alex,Acc,Participant_Images/5f16f559325a640008bb9a07/5f16f559325a640008bb9a07_Images/5f16f559325a640008bb9a07_Image_10.jpeg,did not like,2.682944783,,,,,,,,,,,,,,
,,,,,,space,0.4637,NAN,,NAN,,0,78,78,78,1,79,Alex,Acc,Participant_Images/5f16f559325a640008bb9a07/5f16f559325a640008bb9a07_Images/5f16f559325a640008bb9a07_Image_7.jpeg,did not like,4.51984296,,,,,,,,,,,,,,
,,,,,,,,,,,,,,,,,,,,,,,s,1,space,0.5278,0,0,0,0,1,0.5093,h,0.3826,,
,,,,,,,,NAN,,NAN,,0,79,79,79,1,80,Alex,Acc,Participant_Images/5f16f559325a640008bb9a07/5f16f559325a640008bb9a07_Images/5f16f559325a640008bb9a07_Image_2.jpeg,liked,3.195382774,,,,,,,,,,,,,,
,,,,,,space,0.6339,NAN,,NAN,,0,80,80,80,1,81,Alex,Acc,Participant_Images/5f16f559325a640008bb9a07/5f16f559325a640008bb9a07_Images/5f16f559325a640008bb9a07_Image_6.jpeg,liked,1.779333479,,,,,,,,,,,,,,
,,,,,,space,0.507,NAN,,NAN,,0,81,81,81,1,82,Alex,Acc,Participant_Images/5f16f559325a640008bb9a07/5f16f559325a640008bb9a07_Images/5f16f559325a640008bb9a07_Image_8.jpeg,liked,4.312468682,,,,,,,,,,,,,,
,,,,,,space,0.5126,NAN,,NAN,,0,82,82,82,1,83,Alex,Acc,Participant_Images/5f16f559325a640008bb9a07/5f16f559325a640008bb9a07_Images/5f16f559325a640008bb9a07_Image_30.jpeg,liked,4.940433059,,,,,,,,,,,,,,
,,,,,,space,0.4548,NAN,,NAN,,0,83,83,83,1,84,Alex,Acc,Participant_Images/5f16f559325a640008bb9a07/5f16f559325a640008bb9a07_Images/5f16f559325a640008bb9a07_Image_22.jpeg,liked,2.7105123,,,,,,,,,,,,,,
,,,,,,,,,,,,,,,,,,,,,,,s,1,space,0.3778,0,0,0,0,1,0.6178,h,0.3677,,
,,,,,,,,NAN,,NAN,,0,84,84,84,1,85,Alex,Acc,Participant_Images/5f16f559325a640008bb9a07/5f16f559325a640008bb9a07_Images/5f16f559325a640008bb9a07_Image_14.jpeg,liked,3.602308302,,,,,,,,,,,,,,
,,,,,,space,0.3538,NAN,,NAN,,0,85,85,85,1,86,Alex,Acc,Participant_Images/5f16f559325a640008bb9a07/5f16f559325a640008bb9a07_Images/5f16f559325a640008bb9a07_Image_20.jpeg,did not like,4.106391878,,,,,,,,,,,,,,
,,,,,,space,1.1892,NAN,,NAN,,0,86,86,86,1,87,Alex,Acc,Participant_Images/5f16f559325a640008bb9a07/5f16f559325a640008bb9a07_Images/5f16f559325a640008bb9a07_Image_26.jpeg,did not like,3.799433026,,,,,,,,,,,,,,
,,,,,,space,0.5208,NAN,,NAN,,0,87,87,87,1,88,Alex,Acc,Participant_Images/5f16f559325a640008bb9a07/5f16f559325a640008bb9a07_Images/5f16f559325a640008bb9a07_Image_19.jpeg,liked,5.246980764,,,,,,,,,,,,,,
,,,,,,space,0.7872,NAN,,NAN,,0,88,88,88,1,89,Alex,Acc,Participant_Images/5f16f559325a640008bb9a07/5f16f559325a640008bb9a07_Images/5f16f559325a640008bb9a07_Image_5.jpeg,liked,3.30081769,,,,,,,,,,,,,,
,,,,,,,,,,,,,,,,,,,,,,,s,1,space,0.3516,0,0,0,0,1,1.0604,h,0.531,,
,,,,,,,,4,,1,,0,89,89,89,1,90,Alex,Acc,Participant_Images/5f16f559325a640008bb9a07/5f16f559325a640008bb9a07_Images/5f16f559325a640008bb9a07_Image_18.jpeg,liked,1.661473164,,,,,,,,,,,,,,
,,,,space,1.9651,space,3.0991,NAN,,NAN,,0,90,90,90,1,91,Sam,Rej,Participant_Images/5f16f559325a640008bb9a07/5f16f559325a640008bb9a07_Images/5f16f559325a640008bb9a07_Image_11.jpeg,did not like,3.613205605,,,,,,,,,,,,,,
,,,,,,space,1.0328,NAN,,NAN,,0,91,91,91,1,92,Sam,Rej,Participant_Images/5f16f559325a640008bb9a07/5f16f559325a640008bb9a07_Images/5f16f559325a640008bb9a07_Image_21.jpeg,liked,4.988446431,,,,,,,,,,,,,,
,,,,,,space,1.0689,NAN,,NAN,,0,92,92,92,1,93,Sam,Rej,Participant_Images/5f16f559325a640008bb9a07/5f16f559325a640008bb9a07_Images/5f16f559325a640008bb9a07_Image_22.jpeg,did not like,3.470791822,,,,,,,,,,,,,,
,,,,,,space,1.1347,NAN,,NAN,,0,93,93,93,1,94,Sam,Rej,Participant_Images/5f16f559325a640008bb9a07/5f16f559325a640008bb9a07_Images/5f16f559325a640008bb9a07_Image_23.jpeg,liked,3.820572462,,,,,,,,,,,,,,
,,,,,,,,,,,,,,,,,,,,,,,s,1,space,0.8172,0,0,0,0,1,1.3334,h,0.3328,,
,,,,,,,,NAN,,NAN,,0,94,94,94,1,95,Sam,Rej,Participant_Images/5f16f559325a640008bb9a07/5f16f559325a640008bb9a07_Images/5f16f559325a640008bb9a07_Image_5.jpeg,liked,2.455989137,,,,,,,,,,,,,,
,,,,,,space,0.9567,NAN,,NAN,,0,95,95,95,1,96,Sam,Rej,Participant_Images/5f16f559325a640008bb9a07/5f16f559325a640008bb9a07_Images/5f16f559325a640008bb9a07_Image_17.jpeg,liked,3.79605092,,,,,,,,,,,,,,
,,,,,,space,1.0185,NAN,,NAN,,0,96,96,96,1,97,Sam,Rej,Participant_Images/5f16f559325a640008bb9a07/5f16f559325a640008bb9a07_Images/5f16f559325a640008bb9a07_Image_6.jpeg,did not like,3.562416326,,,,,,,,,,,,,,
,,,,,,space,0.6874,NAN,,NAN,,0,97,97,97,1,98,Sam,Rej,Participant_Images/5f16f559325a640008bb9a07/5f16f559325a640008bb9a07_Images/5f16f559325a640008bb9a07_Image_12.jpeg,did not like,2.843822497,,,,,,,,,,,,,,
,,,,,,space,0.808,NAN,,NAN,,0,98,98,98,1,99,Sam,Rej,Participant_Images/5f16f559325a640008bb9a07/5f16f559325a640008bb9a07_Images/5f16f559325a640008bb9a07_Image_25.jpeg,did not like,3.546495948,,,,,,,,,,,,,,
,,,,,,,,,,,,,,,,,,,,,,,s,1,space,0.9852,0,0,0,0,1,1.2506,h,0.8932,,
,,,,,,,,NAN,,NAN,,0,99,99,99,1,100,Sam,Rej,Participant_Images/5f16f559325a640008bb9a07/5f16f559325a640008bb9a07_Images/5f16f559325a640008bb9a07_Image_10.jpeg,did not like,1.672012706,,,,,,,,,,,,,,
,,,,,,space,1.1546,NAN,,NAN,,0,100,100,100,1,101,Sam,Rej,Participant_Images/5f16f559325a640008bb9a07/5f16f559325a640008bb9a07_Images/5f16f559325a640008bb9a07_Image_24.jpeg,did not like,4.942172136,,,,,,,,,,,,,,
,,,,,,space,1.0459,NAN,,NAN,,0,101,101,101,1,102,Sam,Rej,Participant_Images/5f16f559325a640008bb9a07/5f16f559325a640008bb9a07_Images/5f16f559325a640008bb9a07_Image_9.jpeg,did not like,2.50187214,,,,,,,,,,,,,,
,,,,,,space,1.1398,NAN,,NAN,,0,102,102,102,1,103,Sam,Rej,Participant_Images/5f16f559325a640008bb9a07/5f16f559325a640008bb9a07_Images/5f16f559325a640008bb9a07_Image_28.jpeg,did not like,2.071164779,,,,,,,,,,,,,,
,,,,,,space,0.8126,NAN,,NAN,,0,103,103,103,1,104,Sam,Rej,Participant_Images/5f16f559325a640008bb9a07/5f16f559325a640008bb9a07_Images/5f16f559325a640008bb9a07_Image_1.jpeg,did not like,5.336503566,,,,,,,,,,,,,,
,,,,,,,,,,,,,,,,,,,,,,,s,1,space,0.554,0,0,0,0,1,1.5024,h,1.1262,,
,,,,,,,,NAN,,NAN,,0,104,104,104,1,105,Sam,Rej,Participant_Images/5f16f559325a640008bb9a07/5f16f559325a640008bb9a07_Images/5f16f559325a640008bb9a07_Image_15.jpeg,did not like,2.642157193,,,,,,,,,,,,,,
,,,,,,space,0.9362,NAN,,NAN,,0,105,105,105,1,106,Sam,Rej,Participant_Images/5f16f559325a640008bb9a07/5f16f559325a640008bb9a07_Images/5f16f559325a640008bb9a07_Image_3.jpeg,did not like,4.456234322,,,,,,,,,,,,,,
,,,,,,space,1.1059,NAN,,NAN,,0,106,106,106,1,107,Sam,Rej,Participant_Images/5f16f559325a640008bb9a07/5f16f559325a640008bb9a07_Images/5f16f559325a640008bb9a07_Image_16.jpeg,did not like,4.438512181,,,,,,,,,,,,,,
,,,,,,space,0.8814,NAN,,NAN,,0,107,107,107,1,108,Sam,Rej,Participant_Images/5f16f559325a640008bb9a07/5f16f559325a640008bb9a07_Images/5f16f559325a640008bb9a07_Image_14.jpeg,did not like,2.682944783,,,,,,,,,,,,,,
,,,,,,space,0.9424,NAN,,NAN,,0,108,108,108,1,109,Sam,Rej,Participant_Images/5f16f559325a640008bb9a07/5f16f559325a640008bb9a07_Images/5f16f559325a640008bb9a07_Image_19.jpeg,did not like,4.51984296,,,,,,,,,,,,,,
,,,,,,,,,,,,,,,,,,,,,,,s,1,space,1.1373,0,0,0,0,1,1.3387,h,0.5633,,
,,,,,,,,NAN,,NAN,,0,109,109,109,1,110,Sam,Rej,Participant_Images/5f16f559325a640008bb9a07/5f16f559325a640008bb9a07_Images/5f16f559325a640008bb9a07_Image_2.jpeg,did not like,3.195382774,,,,,,,,,,,,,,
,,,,,,space,1.0533,NAN,,NAN,,0,110,110,110,1,111,Sam,Rej,Participant_Images/5f16f559325a640008bb9a07/5f16f559325a640008bb9a07_Images/5f16f559325a640008bb9a07_Image_18.jpeg,liked,1.779333479,,,,,,,,,,,,,,
,,,,,,space,0.9611,NAN,,NAN,,0,111,111,111,1,112,Sam,Rej,Participant_Images/5f16f559325a640008bb9a07/5f16f559325a640008bb9a07_Images/5f16f559325a640008bb9a07_Image_8.jpeg,liked,4.312468682,,,,,,,,,,,,,,
,,,,,,space,0.9151,NAN,,NAN,,0,112,112,112,1,113,Sam,Rej,Participant_Images/5f16f559325a640008bb9a07/5f16f559325a640008bb9a07_Images/5f16f559325a640008bb9a07_Image_26.jpeg,did not like,4.940433059,,,,,,,,,,,,,,
,,,,,,space,0.8847,NAN,,NAN,,0,113,113,113,1,114,Sam,Rej,Participant_Images/5f16f559325a640008bb9a07/5f16f559325a640008bb9a07_Images/5f16f559325a640008bb9a07_Image_7.jpeg,did not like,2.7105123,,,,,,,,,,,,,,
,,,,,,,,,,,,,,,,,,,,,,,s,1,space,0.8525,0,0,0,0,1,1.4559,h,0.8105,,
,,,,,,,,NAN,,NAN,,0,114,114,114,1,115,Sam,Rej,Participant_Images/5f16f559325a640008bb9a07/5f16f559325a640008bb9a07_Images/5f16f559325a640008bb9a07_Image_13.jpeg,liked,3.602308302,,,,,,,,,,,,,,
,,,,,,space,0.9369,NAN,,NAN,,0,115,115,115,1,116,Sam,Rej,Participant_Images/5f16f559325a640008bb9a07/5f16f559325a640008bb9a07_Images/5f16f559325a640008bb9a07_Image_30.jpeg,did not like,4.106391878,,,,,,,,,,,,,,
,,,,,,space,0.3674,NAN,,NAN,,0,116,116,116,1,117,Sam,Rej,Participant_Images/5f16f559325a640008bb9a07/5f16f559325a640008bb9a07_Images/5f16f559325a640008bb9a07_Image_29.jpeg,did not like,3.799433026,,,,,,,,,,,,,,
,,,,,,space,0.8203,NAN,,NAN,,0,117,117,117,1,118,Sam,Rej,Participant_Images/5f16f559325a640008bb9a07/5f16f559325a640008bb9a07_Images/5f16f559325a640008bb9a07_Image_4.jpeg,did not like,5.246980764,,,,,,,,,,,,,,
,,,,,,space,0.8207,NAN,,NAN,,0,118,118,118,1,119,Sam,Rej,Participant_Images/5f16f559325a640008bb9a07/5f16f559325a640008bb9a07_Images/5f16f559325a640008bb9a07_Image_27.jpeg,liked,3.30081769,,,,,,,,,,,,,,
,,,,,,,,,,,,,,,,,,,,,,,s,1,space,0.7865,0,0,0,0,1,1.3732,h,0.7083,,
,,,,,,,,2,,1,,0,119,119,119,1,120,Sam,Rej,Participant_Images/5f16f559325a640008bb9a07/5f16f559325a640008bb9a07_Images/5f16f559325a640008bb9a07_Image_20.jpeg,liked,1.661473164,,,,,,,,,,,,,,
,,,,space,1.2311,space,1.2336,NAN,,NAN,,0,120,120,120,1,121,Charlie,Neutral,Participant_Images/5f16f559325a640008bb9a07/5f16f559325a640008bb9a07_Images/5f16f559325a640008bb9a07_Image_13.jpeg,did not like,3.613205605,,,,,,,,,,,,,,
,,,,,,space,1.5005,NAN,,NAN,,0,121,121,121,1,122,Charlie,Neutral,Participant_Images/5f16f559325a640008bb9a07/5f16f559325a640008bb9a07_Images/5f16f559325a640008bb9a07_Image_23.jpeg,liked,4.988446431,,,,,,,,,,,,,,
,,,,,,space,1.2621,NAN,,NAN,,0,122,122,122,1,123,Charlie,Neutral,Participant_Images/5f16f559325a640008bb9a07/5f16f559325a640008bb9a07_Images/5f16f559325a640008bb9a07_Image_16.jpeg,liked,3.470791822,,,,,,,,,,,,,,
,,,,,,space,1.1668,NAN,,NAN,,0,123,123,123,1,124,Charlie,Neutral,Participant_Images/5f16f559325a640008bb9a07/5f16f559325a640008bb9a07_Images/5f16f559325a640008bb9a07_Image_18.jpeg,liked,3.820572462,,,,,,,,,,,,,,
,,,,,,,,,,,,,,,,,,,,,,,s,1,space,1.2004,0,0,0,0,1,1.6834,h,0.9376,,
,,,,,,,,NAN,,NAN,,0,124,124,124,1,125,Charlie,Neutral,Participant_Images/5f16f559325a640008bb9a07/5f16f559325a640008bb9a07_Images/5f16f559325a640008bb9a07_Image_1.jpeg,did not like,2.455989137,,,,,,,,,,,,,,
,,,,,,space,1.3016,NAN,,NAN,,0,125,125,125,1,126,Charlie,Neutral,Participant_Images/5f16f559325a640008bb9a07/5f16f559325a640008bb9a07_Images/5f16f559325a640008bb9a07_Image_22.jpeg,liked,3.79605092,,,,,,,,,,,,,,
,,,,,,space,0.5756,NAN,,NAN,,0,126,126,126,1,127,Charlie,Neutral,Participant_Images/5f16f559325a640008bb9a07/5f16f559325a640008bb9a07_Images/5f16f559325a640008bb9a07_Image_15.jpeg,did not like,3.562416326,,,,,,,,,,,,,,
,,,,,,space,0.8126,NAN,,NAN,,0,127,127,127,1,128,Charlie,Neutral,Participant_Images/5f16f559325a640008bb9a07/5f16f559325a640008bb9a07_Images/5f16f559325a640008bb9a07_Image_24.jpeg,did not like,2.843822497,,,,,,,,,,,,,,
,,,,,,space,0.6363,NAN,,NAN,,0,128,128,128,1,129,Charlie,Neutral,Participant_Images/5f16f559325a640008bb9a07/5f16f559325a640008bb9a07_Images/5f16f559325a640008bb9a07_Image_3.jpeg,did not like,3.546495948,,,,,,,,,,,,,,
,,,,,,,,,,,,,,,,,,,,,,,s,1,space,0.4409,0,0,0,0,1,1.0838,h,0.728,,
,,,,,,,,NAN,,NAN,,0,129,129,129,1,130,Charlie,Neutral,Participant_Images/5f16f559325a640008bb9a07/5f16f559325a640008bb9a07_Images/5f16f559325a640008bb9a07_Image_25.jpeg,did not like,1.672012706,,,,,,,,,,,,,,
,,,,,,space,0.7609,NAN,,NAN,,0,130,130,130,1,131,Charlie,Neutral,Participant_Images/5f16f559325a640008bb9a07/5f16f559325a640008bb9a07_Images/5f16f559325a640008bb9a07_Image_7.jpeg,did not like,4.942172136,,,,,,,,,,,,,,
,,,,,,space,0.6869,NAN,,NAN,,0,131,131,131,1,132,Charlie,Neutral,Participant_Images/5f16f559325a640008bb9a07/5f16f559325a640008bb9a07_Images/5f16f559325a640008bb9a07_Image_5.jpeg,did not like,2.50187214,,,,,,,,,,,,,,
,,,,,,space,1.5505,NAN,,NAN,,0,132,132,132,1,133,Charlie,Neutral,Participant_Images/5f16f559325a640008bb9a07/5f16f559325a640008bb9a07_Images/5f16f559325a640008bb9a07_Image_21.jpeg,did not like,2.071164779,,,,,,,,,,,,,,
,,,,,,space,0.6043,NAN,,NAN,,0,133,133,133,1,134,Charlie,Neutral,Participant_Images/5f16f559325a640008bb9a07/5f16f559325a640008bb9a07_Images/5f16f559325a640008bb9a07_Image_17.jpeg,did not like,5.336503566,,,,,,,,,,,,,,
,,,,,,,,,,,,,,,,,,,,,,,s,1,space,0.5522,0,0,0,0,1,1.0267,h,0.4821,,
,,,,,,,,NAN,,NAN,,0,134,134,134,1,135,Charlie,Neutral,Participant_Images/5f16f559325a640008bb9a07/5f16f559325a640008bb9a07_Images/5f16f559325a640008bb9a07_Image_12.jpeg,liked,2.642157193,,,,,,,,,,,,,,
,,,,,,space,0.687,NAN,,NAN,,0,135,135,135,1,136,Charlie,Neutral,Participant_Images/5f16f559325a640008bb9a07/5f16f559325a640008bb9a07_Images/5f16f559325a640008bb9a07_Image_26.jpeg,liked,4.456234322,,,,,,,,,,,,,,
,,,,,,space,0.4552,NAN,,NAN,,0,136,136,136,1,137,Charlie,Neutral,Participant_Images/5f16f559325a640008bb9a07/5f16f559325a640008bb9a07_Images/5f16f559325a640008bb9a07_Image_9.jpeg,liked,4.438512181,,,,,,,,,,,,,,
,,,,,,space,0.5497,NAN,,NAN,,0,137,137,137,1,138,Charlie,Neutral,Participant_Images/5f16f559325a640008bb9a07/5f16f559325a640008bb9a07_Images/5f16f559325a640008bb9a07_Image_20.jpeg,did not like,2.682944783,,,,,,,,,,,,,,
,,,,,,space,0.8505,NAN,,NAN,,0,138,138,138,1,139,Charlie,Neutral,Participant_Images/5f16f559325a640008bb9a07/5f16f559325a640008bb9a07_Images/5f16f559325a640008bb9a07_Image_19.jpeg,liked,4.51984296,,,,,,,,,,,,,,
,,,,,,,,,,,,,,,,,,,,,,,s,1,space,1.1534,0,0,0,0,1,1.3703,h,1.0666,,
,,,,,,,,NAN,,NAN,,0,139,139,139,1,140,Charlie,Neutral,Participant_Images/5f16f559325a640008bb9a07/5f16f559325a640008bb9a07_Images/5f16f559325a640008bb9a07_Image_29.jpeg,did not like,3.195382774,,,,,,,,,,,,,,
,,,,,,space,0.9121,NAN,,NAN,,0,140,140,140,1,141,Charlie,Neutral,Participant_Images/5f16f559325a640008bb9a07/5f16f559325a640008bb9a07_Images/5f16f559325a640008bb9a07_Image_8.jpeg,liked,1.779333479,,,,,,,,,,,,,,
,,,,,,space,0.637,NAN,,NAN,,0,141,141,141,1,142,Charlie,Neutral,Participant_Images/5f16f559325a640008bb9a07/5f16f559325a640008bb9a07_Images/5f16f559325a640008bb9a07_Image_27.jpeg,liked,4.312468682,,,,,,,,,,,,,,
,,,,,,space,0.5558,NAN,,NAN,,0,142,142,142,1,143,Charlie,Neutral,Participant_Images/5f16f559325a640008bb9a07/5f16f559325a640008bb9a07_Images/5f16f559325a640008bb9a07_Image_30.jpeg,liked,4.940433059,,,,,,,,,,,,,,
,,,,,,space,0.5531,NAN,,NAN,,0,143,143,143,1,144,Charlie,Neutral,Participant_Images/5f16f559325a640008bb9a07/5f16f559325a640008bb9a07_Images/5f16f559325a640008bb9a07_Image_28.jpeg,did not like,2.7105123,,,,,,,,,,,,,,
,,,,,,,,,,,,,,,,,,,,,,,s,1,space,0.6042,0,0,0,0,1,1.2612,h,1.086,,
,,,,,,,,NAN,,NAN,,0,144,144,144,1,145,Charlie,Neutral,Participant_Images/5f16f559325a640008bb9a07/5f16f559325a640008bb9a07_Images/5f16f559325a640008bb9a07_Image_10.jpeg,did not like,3.602308302,,,,,,,,,,,,,,
,,,,,,space,0.6373,NAN,,NAN,,0,145,145,145,1,146,Charlie,Neutral,Participant_Images/5f16f559325a640008bb9a07/5f16f559325a640008bb9a07_Images/5f16f559325a640008bb9a07_Image_14.jpeg,liked,4.106391878,,,,,,,,,,,,,,
,,,,,,space,0.6502,NAN,,NAN,,0,146,146,146,1,147,Charlie,Neutral,Participant_Images/5f16f559325a640008bb9a07/5f16f559325a640008bb9a07_Images/5f16f559325a640008bb9a07_Image_2.jpeg,liked,3.799433026,,,,,,,,,,,,,,
,,,,,,space,0.4699,NAN,,NAN,,0,147,147,147,1,148,Charlie,Neutral,Participant_Images/5f16f559325a640008bb9a07/5f16f559325a640008bb9a07_Images/5f16f559325a640008bb9a07_Image_4.jpeg,liked,5.246980764,,,,,,,,,,,,,,
,,,,,,space,0.5296,NAN,,NAN,,0,148,148,148,1,149,Charlie,Neutral,Participant_Images/5f16f559325a640008bb9a07/5f16f559325a640008bb9a07_Images/5f16f559325a640008bb9a07_Image_11.jpeg,did not like,3.30081769,,,,,,,,,,,,,,
,,,,,,,,,,,,,,,,,,,,,,,s,1,space,0.4284,0,0,0,0,1,1.2317,h,1.1098,,
,,,,,,,,2,,1,,0,149,149,149,1,150,Charlie,Neutral,Participant_Images/5f16f559325a640008bb9a07/5f16f559325a640008bb9a07_Images/5f16f559325a640008bb9a07_Image_6.jpeg,liked,1.661473164,,,,,,,,,,,,,,
,,,,,,,,,,,,,,,,,,,,,,,,,,,,,,,,,,,space,2.8492
