PROLIFIC_ID,endwelcomescreen_keys.keys,endwelcomescreen_keys.rt,endinstructionscreen_keys.keys,endinstructionscreen_keys.rt,endpartnermatch_keys.keys,endpartnermatch_keys.rt,sharenextphoto_key.keys,sharenextphoto_key.rt,salience_rating,key_resp.keys,stress_level,stresslevel_keypress.keys,entiretaskloop.thisRepN,entiretaskloop.thisTrialN,entiretaskloop.thisN,entiretaskloop.thisIndex,entiretaskloop.ran,TrialNumber,Partner,Condition,Photos,Feedback,FeedbackWait,choice_keys.keys,playlottery,resumeafterlottery_keys.keys,resumeafterlottery_keys.rt,lotteryloop.thisRepN,lotteryloop.thisTrialN,lotteryloop.thisN,lotteryloop.thisIndex,lotteryloop.ran,choice_keys.rt,lotteryguess_keys.keys,lotteryguess_keys.rt,end_screen_keys.keys,end_screen_keys.rt
5f32bc368853aa03df112fc6,space,2.4365,,,,,,,,,,,,,,,,,,,,,,,,,,,,,,,,,,,
5f32bc368853aa03df112fc6,,,,,,,,,,,,,,,,,,,,,,,,,,,,,,,,,,,,,
5f32bc368853aa03df112fc6,,,space,1.2933,,,,,,,,,,,,,,,,,,,,,,,,,,,,,,,,,
5f32bc368853aa03df112fc6,,,,,space,1.8788,space,0.8504,NAN,,NAN,,0.0,0.0,0.0,0.0,1.0,1.0,Alex,Rej,Participant_Images/5f32bc368853aa03df112fc6/5f32bc368853aa03df112fc6_Images/5f32bc368853aa03df112fc6_Image_16.jpeg,liked,3.613205605,,,,,,,,,,,,,,
5f32bc368853aa03df112fc6,,,,,,,space,0.7795,NAN,,NAN,,0.0,1.0,1.0,1.0,1.0,2.0,Alex,Rej,Participant_Images/5f32bc368853aa03df112fc6/5f32bc368853aa03df112fc6_Images/5f32bc368853aa03df112fc6_Image_25.jpeg,did not like,4.988446431,,,,,,,,,,,,,,
5f32bc368853aa03df112fc6,,,,,,,space,0.6336,NAN,,NAN,,0.0,2.0,2.0,2.0,1.0,3.0,Alex,Rej,Participant_Images/5f32bc368853aa03df112fc6/5f32bc368853aa03df112fc6_Images/5f32bc368853aa03df112fc6_Image_19.jpeg,liked,3.470791822,,,,,,,,,,,,,,
5f32bc368853aa03df112fc6,,,,,,,space,1.0504,NAN,,NAN,,0.0,3.0,3.0,3.0,1.0,4.0,Alex,Rej,Participant_Images/5f32bc368853aa03df112fc6/5f32bc368853aa03df112fc6_Images/5f32bc368853aa03df112fc6_Image_11.jpeg,did not like,3.820572462,,,,,,,,,,,,,,
5f32bc368853aa03df112fc6,,,,,,,,,,,,,,,,,,,,,,,,,999.0,space,3.4041,0.0,0.0,0.0,0.0,1.0,,,,,
5f32bc368853aa03df112fc6,,,,,,,,,NAN,,NAN,,0.0,4.0,4.0,4.0,1.0,5.0,Alex,Rej,Participant_Images/5f32bc368853aa03df112fc6/5f32bc368853aa03df112fc6_Images/5f32bc368853aa03df112fc6_Image_30.jpeg,did not like,2.455989137,,,,,,,,,,,,,,
5f32bc368853aa03df112fc6,,,,,,,space,19.7936,NAN,,NAN,,0.0,5.0,5.0,5.0,1.0,6.0,Alex,Rej,Participant_Images/5f32bc368853aa03df112fc6/5f32bc368853aa03df112fc6_Images/5f32bc368853aa03df112fc6_Image_4.jpeg,did not like,3.79605092,,,,,,,,,,,,,,
5f32bc368853aa03df112fc6,,,,,,,space,1.3251,NAN,,NAN,,0.0,6.0,6.0,6.0,1.0,7.0,Alex,Rej,Participant_Images/5f32bc368853aa03df112fc6/5f32bc368853aa03df112fc6_Images/5f32bc368853aa03df112fc6_Image_20.jpeg,did not like,3.562416326,,,,,,,,,,,,,,
5f32bc368853aa03df112fc6,,,,,,,space,0.7173,NAN,,NAN,,0.0,7.0,7.0,7.0,1.0,8.0,Alex,Rej,Participant_Images/5f32bc368853aa03df112fc6/5f32bc368853aa03df112fc6_Images/5f32bc368853aa03df112fc6_Image_6.jpeg,did not like,2.843822497,,,,,,,,,,,,,,
5f32bc368853aa03df112fc6,,,,,,,space,5.58,NAN,,NAN,,0.0,8.0,8.0,8.0,1.0,9.0,Alex,Rej,Participant_Images/5f32bc368853aa03df112fc6/5f32bc368853aa03df112fc6_Images/5f32bc368853aa03df112fc6_Image_5.jpeg,did not like,3.546495948,,,,,,,,,,,,,,
5f32bc368853aa03df112fc6,,,,,,,,,,,,,,,,,,,,,,,,,999.0,space,2.2998,0.0,0.0,0.0,0.0,1.0,,,,,
5f32bc368853aa03df112fc6,,,,,,,,,NAN,,NAN,,0.0,9.0,9.0,9.0,1.0,10.0,Alex,Rej,Participant_Images/5f32bc368853aa03df112fc6/5f32bc368853aa03df112fc6_Images/5f32bc368853aa03df112fc6_Image_24.jpeg,did not like,1.672012706,,,,,,,,,,,,,,
5f32bc368853aa03df112fc6,,,,,,,space,0.8564,NAN,,NAN,,0.0,10.0,10.0,10.0,1.0,11.0,Alex,Rej,Participant_Images/5f32bc368853aa03df112fc6/5f32bc368853aa03df112fc6_Images/5f32bc368853aa03df112fc6_Image_17.jpeg,liked,4.942172136,,,,,,,,,,,,,,
5f32bc368853aa03df112fc6,,,,,,,space,0.6452,NAN,,NAN,,0.0,11.0,11.0,11.0,1.0,12.0,Alex,Rej,Participant_Images/5f32bc368853aa03df112fc6/5f32bc368853aa03df112fc6_Images/5f32bc368853aa03df112fc6_Image_12.jpeg,did not like,2.50187214,,,,,,,,,,,,,,
5f32bc368853aa03df112fc6,,,,,,,space,0.8212,NAN,,NAN,,0.0,12.0,12.0,12.0,1.0,13.0,Alex,Rej,Participant_Images/5f32bc368853aa03df112fc6/5f32bc368853aa03df112fc6_Images/5f32bc368853aa03df112fc6_Image_15.jpeg,did not like,2.071164779,,,,,,,,,,,,,,
5f32bc368853aa03df112fc6,,,,,,,space,0.7668,NAN,,NAN,,0.0,13.0,13.0,13.0,1.0,14.0,Alex,Rej,Participant_Images/5f32bc368853aa03df112fc6/5f32bc368853aa03df112fc6_Images/5f32bc368853aa03df112fc6_Image_7.jpeg,liked,5.336503566,,,,,,,,,,,,,,
5f32bc368853aa03df112fc6,,,,,,,,,,,,,,,,,,,,,,,,s,1.0,space,0.9443,0.0,0.0,0.0,0.0,1.0,3.8723,h,2.5117,,
5f32bc368853aa03df112fc6,,,,,,,,,NAN,,NAN,,0.0,14.0,14.0,14.0,1.0,15.0,Alex,Rej,Participant_Images/5f32bc368853aa03df112fc6/5f32bc368853aa03df112fc6_Images/5f32bc368853aa03df112fc6_Image_18.jpeg,liked,2.642157193,,,,,,,,,,,,,,
5f32bc368853aa03df112fc6,,,,,,,space,1.1844,NAN,,NAN,,0.0,15.0,15.0,15.0,1.0,16.0,Alex,Rej,Participant_Images/5f32bc368853aa03df112fc6/5f32bc368853aa03df112fc6_Images/5f32bc368853aa03df112fc6_Image_27.jpeg,liked,4.456234322,,,,,,,,,,,,,,
5f32bc368853aa03df112fc6,,,,,,,space,0.7008,NAN,,NAN,,0.0,16.0,16.0,16.0,1.0,17.0,Alex,Rej,Participant_Images/5f32bc368853aa03df112fc6/5f32bc368853aa03df112fc6_Images/5f32bc368853aa03df112fc6_Image_2.jpeg,did not like,4.438512181,,,,,,,,,,,,,,
5f32bc368853aa03df112fc6,,,,,,,space,0.7327,NAN,,NAN,,0.0,17.0,17.0,17.0,1.0,18.0,Alex,Rej,Participant_Images/5f32bc368853aa03df112fc6/5f32bc368853aa03df112fc6_Images/5f32bc368853aa03df112fc6_Image_28.jpeg,did not like,2.682944783,,,,,,,,,,,,,,
5f32bc368853aa03df112fc6,,,,,,,space,0.8023,NAN,,NAN,,0.0,18.0,18.0,18.0,1.0,19.0,Alex,Rej,Participant_Images/5f32bc368853aa03df112fc6/5f32bc368853aa03df112fc6_Images/5f32bc368853aa03df112fc6_Image_21.jpeg,liked,4.51984296,,,,,,,,,,,,,,
5f32bc368853aa03df112fc6,,,,,,,,,,,,,,,,,,,,,,,,s,1.0,space,1.5084,0.0,0.0,0.0,0.0,1.0,3.226,,,,
5f32bc368853aa03df112fc6,,,,,,,,,NAN,,NAN,,0.0,19.0,19.0,19.0,1.0,20.0,Alex,Rej,Participant_Images/5f32bc368853aa03df112fc6/5f32bc368853aa03df112fc6_Images/5f32bc368853aa03df112fc6_Image_9.jpeg,did not like,3.195382774,,,,,,,,,,,,,,
5f32bc368853aa03df112fc6,,,,,,,space,0.7177,NAN,,NAN,,0.0,20.0,20.0,20.0,1.0,21.0,Alex,Rej,Participant_Images/5f32bc368853aa03df112fc6/5f32bc368853aa03df112fc6_Images/5f32bc368853aa03df112fc6_Image_26.jpeg,liked,1.779333479,,,,,,,,,,,,,,
5f32bc368853aa03df112fc6,,,,,,,space,0.6975,NAN,,NAN,,0.0,21.0,21.0,21.0,1.0,22.0,Alex,Rej,Participant_Images/5f32bc368853aa03df112fc6/5f32bc368853aa03df112fc6_Images/5f32bc368853aa03df112fc6_Image_3.jpeg,liked,4.312468682,,,,,,,,,,,,,,
5f32bc368853aa03df112fc6,,,,,,,space,0.838,NAN,,NAN,,0.0,22.0,22.0,22.0,1.0,23.0,Alex,Rej,Participant_Images/5f32bc368853aa03df112fc6/5f32bc368853aa03df112fc6_Images/5f32bc368853aa03df112fc6_Image_23.jpeg,did not like,4.940433059,,,,,,,,,,,,,,
5f32bc368853aa03df112fc6,,,,,,,space,0.7275,NAN,,NAN,,0.0,23.0,23.0,23.0,1.0,24.0,Alex,Rej,Participant_Images/5f32bc368853aa03df112fc6/5f32bc368853aa03df112fc6_Images/5f32bc368853aa03df112fc6_Image_10.jpeg,did not like,2.7105123,,,,,,,,,,,,,,
5f32bc368853aa03df112fc6,,,,,,,,,,,,,,,,,,,,,,,,s,1.0,space,2.7514,0.0,0.0,0.0,0.0,1.0,1.6796,h,2.9283,,
5f32bc368853aa03df112fc6,,,,,,,,,NAN,,NAN,,0.0,24.0,24.0,24.0,1.0,25.0,Alex,Rej,Participant_Images/5f32bc368853aa03df112fc6/5f32bc368853aa03df112fc6_Images/5f32bc368853aa03df112fc6_Image_1.jpeg,did not like,3.602308302,,,,,,,,,,,,,,
5f32bc368853aa03df112fc6,,,,,,,space,0.7042,NAN,,NAN,,0.0,25.0,25.0,25.0,1.0,26.0,Alex,Rej,Participant_Images/5f32bc368853aa03df112fc6/5f32bc368853aa03df112fc6_Images/5f32bc368853aa03df112fc6_Image_13.jpeg,did not like,4.106391878,,,,,,,,,,,,,,
5f32bc368853aa03df112fc6,,,,,,,space,0.7552,NAN,,NAN,,0.0,26.0,26.0,26.0,1.0,27.0,Alex,Rej,Participant_Images/5f32bc368853aa03df112fc6/5f32bc368853aa03df112fc6_Images/5f32bc368853aa03df112fc6_Image_22.jpeg,did not like,3.799433026,,,,,,,,,,,,,,
5f32bc368853aa03df112fc6,,,,,,,space,0.592,NAN,,NAN,,0.0,27.0,27.0,27.0,1.0,28.0,Alex,Rej,Participant_Images/5f32bc368853aa03df112fc6/5f32bc368853aa03df112fc6_Images/5f32bc368853aa03df112fc6_Image_29.jpeg,did not like,5.246980764,,,,,,,,,,,,,,
5f32bc368853aa03df112fc6,,,,,,,space,0.6522,NAN,,NAN,,0.0,28.0,28.0,28.0,1.0,29.0,Alex,Rej,Participant_Images/5f32bc368853aa03df112fc6/5f32bc368853aa03df112fc6_Images/5f32bc368853aa03df112fc6_Image_8.jpeg,did not like,3.30081769,,,,,,,,,,,,,,
5f32bc368853aa03df112fc6,,,,,,,,,,,,,,,,,,,,,,,,s,1.0,space,0.6954,0.0,0.0,0.0,0.0,1.0,1.4319,l,0.642,,
5f32bc368853aa03df112fc6,,,,,,,,,1,,4,,0.0,29.0,29.0,29.0,1.0,30.0,Alex,Rej,Participant_Images/5f32bc368853aa03df112fc6/5f32bc368853aa03df112fc6_Images/5f32bc368853aa03df112fc6_Image_14.jpeg,did not like,1.661473164,,,,,,,,,,,,,,
5f32bc368853aa03df112fc6,,,,,space,17.198,space,0.8148,NAN,,NAN,,0.0,30.0,30.0,30.0,1.0,31.0,Charlie,Rej,Participant_Images/5f32bc368853aa03df112fc6/5f32bc368853aa03df112fc6_Images/5f32bc368853aa03df112fc6_Image_3.jpeg,did not like,3.613205605,,,,,,,,,,,,,,
5f32bc368853aa03df112fc6,,,,,,,space,0.5743,NAN,,NAN,,0.0,31.0,31.0,31.0,1.0,32.0,Charlie,Rej,Participant_Images/5f32bc368853aa03df112fc6/5f32bc368853aa03df112fc6_Images/5f32bc368853aa03df112fc6_Image_4.jpeg,did not like,4.988446431,,,,,,,,,,,,,,
5f32bc368853aa03df112fc6,,,,,,,space,0.9211,NAN,,NAN,,0.0,32.0,32.0,32.0,1.0,33.0,Charlie,Rej,Participant_Images/5f32bc368853aa03df112fc6/5f32bc368853aa03df112fc6_Images/5f32bc368853aa03df112fc6_Image_23.jpeg,did not like,3.470791822,,,,,,,,,,,,,,
5f32bc368853aa03df112fc6,,,,,,,space,0.5954,NAN,,NAN,,0.0,33.0,33.0,33.0,1.0,34.0,Charlie,Rej,Participant_Images/5f32bc368853aa03df112fc6/5f32bc368853aa03df112fc6_Images/5f32bc368853aa03df112fc6_Image_12.jpeg,did not like,3.820572462,,,,,,,,,,,,,,
5f32bc368853aa03df112fc6,,,,,,,,,,,,,,,,,,,,,,,,s,1.0,space,2.2792,0.0,0.0,0.0,0.0,1.0,1.7212,h,2.5907,,
5f32bc368853aa03df112fc6,,,,,,,,,NAN,,NAN,,0.0,34.0,34.0,34.0,1.0,35.0,Charlie,Rej,Participant_Images/5f32bc368853aa03df112fc6/5f32bc368853aa03df112fc6_Images/5f32bc368853aa03df112fc6_Image_5.jpeg,did not like,2.455989137,,,,,,,,,,,,,,
5f32bc368853aa03df112fc6,,,,,,,space,5.0849,NAN,,NAN,,0.0,35.0,35.0,35.0,1.0,36.0,Charlie,Rej,Participant_Images/5f32bc368853aa03df112fc6/5f32bc368853aa03df112fc6_Images/5f32bc368853aa03df112fc6_Image_1.jpeg,did not like,3.79605092,,,,,,,,,,,,,,
5f32bc368853aa03df112fc6,,,,,,,space,0.6217,NAN,,NAN,,0.0,36.0,36.0,36.0,1.0,37.0,Charlie,Rej,Participant_Images/5f32bc368853aa03df112fc6/5f32bc368853aa03df112fc6_Images/5f32bc368853aa03df112fc6_Image_2.jpeg,did not like,3.562416326,,,,,,,,,,,,,,
5f32bc368853aa03df112fc6,,,,,,,space,2.1135,NAN,,NAN,,0.0,37.0,37.0,37.0,1.0,38.0,Charlie,Rej,Participant_Images/5f32bc368853aa03df112fc6/5f32bc368853aa03df112fc6_Images/5f32bc368853aa03df112fc6_Image_27.jpeg,liked,2.843822497,,,,,,,,,,,,,,
5f32bc368853aa03df112fc6,,,,,,,space,0.9064,NAN,,NAN,,0.0,38.0,38.0,38.0,1.0,39.0,Charlie,Rej,Participant_Images/5f32bc368853aa03df112fc6/5f32bc368853aa03df112fc6_Images/5f32bc368853aa03df112fc6_Image_13.jpeg,liked,3.546495948,,,,,,,,,,,,,,
5f32bc368853aa03df112fc6,,,,,,,,,,,,,,,,,,,,,,,,s,1.0,space,0.7036,0.0,0.0,0.0,0.0,1.0,1.4556,l,1.6526,,
5f32bc368853aa03df112fc6,,,,,,,,,NAN,,NAN,,0.0,39.0,39.0,39.0,1.0,40.0,Charlie,Rej,Participant_Images/5f32bc368853aa03df112fc6/5f32bc368853aa03df112fc6_Images/5f32bc368853aa03df112fc6_Image_28.jpeg,did not like,1.672012706,,,,,,,,,,,,,,
5f32bc368853aa03df112fc6,,,,,,,space,0.7731,NAN,,NAN,,0.0,40.0,40.0,40.0,1.0,41.0,Charlie,Rej,Participant_Images/5f32bc368853aa03df112fc6/5f32bc368853aa03df112fc6_Images/5f32bc368853aa03df112fc6_Image_8.jpeg,did not like,4.942172136,,,,,,,,,,,,,,
5f32bc368853aa03df112fc6,,,,,,,space,0.5447,NAN,,NAN,,0.0,41.0,41.0,41.0,1.0,42.0,Charlie,Rej,Participant_Images/5f32bc368853aa03df112fc6/5f32bc368853aa03df112fc6_Images/5f32bc368853aa03df112fc6_Image_6.jpeg,liked,2.50187214,,,,,,,,,,,,,,
5f32bc368853aa03df112fc6,,,,,,,space,0.8732,NAN,,NAN,,0.0,42.0,42.0,42.0,1.0,43.0,Charlie,Rej,Participant_Images/5f32bc368853aa03df112fc6/5f32bc368853aa03df112fc6_Images/5f32bc368853aa03df112fc6_Image_11.jpeg,did not like,2.071164779,,,,,,,,,,,,,,
5f32bc368853aa03df112fc6,,,,,,,space,0.5501,NAN,,NAN,,0.0,43.0,43.0,43.0,1.0,44.0,Charlie,Rej,Participant_Images/5f32bc368853aa03df112fc6/5f32bc368853aa03df112fc6_Images/5f32bc368853aa03df112fc6_Image_29.jpeg,did not like,5.336503566,,,,,,,,,,,,,,
5f32bc368853aa03df112fc6,,,,,,,,,,,,,,,,,,,,,,,,s,1.0,space,1.3628,0.0,0.0,0.0,0.0,1.0,1.7007,,,,
5f32bc368853aa03df112fc6,,,,,,,,,NAN,,NAN,,0.0,44.0,44.0,44.0,1.0,45.0,Charlie,Rej,Participant_Images/5f32bc368853aa03df112fc6/5f32bc368853aa03df112fc6_Images/5f32bc368853aa03df112fc6_Image_21.jpeg,did not like,2.642157193,,,,,,,,,,,,,,
5f32bc368853aa03df112fc6,,,,,,,space,0.6689,NAN,,NAN,,0.0,45.0,45.0,45.0,1.0,46.0,Charlie,Rej,Participant_Images/5f32bc368853aa03df112fc6/5f32bc368853aa03df112fc6_Images/5f32bc368853aa03df112fc6_Image_30.jpeg,liked,4.456234322,,,,,,,,,,,,,,
5f32bc368853aa03df112fc6,,,,,,,space,2.6802,NAN,,NAN,,0.0,46.0,46.0,46.0,1.0,47.0,Charlie,Rej,Participant_Images/5f32bc368853aa03df112fc6/5f32bc368853aa03df112fc6_Images/5f32bc368853aa03df112fc6_Image_20.jpeg,did not like,4.438512181,,,,,,,,,,,,,,
5f32bc368853aa03df112fc6,,,,,,,space,3.3612,NAN,,NAN,,0.0,47.0,47.0,47.0,1.0,48.0,Charlie,Rej,Participant_Images/5f32bc368853aa03df112fc6/5f32bc368853aa03df112fc6_Images/5f32bc368853aa03df112fc6_Image_15.jpeg,did not like,2.682944783,,,,,,,,,,,,,,
5f32bc368853aa03df112fc6,,,,,,,space,0.5811,NAN,,NAN,,0.0,48.0,48.0,48.0,1.0,49.0,Charlie,Rej,Participant_Images/5f32bc368853aa03df112fc6/5f32bc368853aa03df112fc6_Images/5f32bc368853aa03df112fc6_Image_25.jpeg,did not like,4.51984296,,,,,,,,,,,,,,
5f32bc368853aa03df112fc6,,,,,,,,,,,,,,,,,,,,,,,,s,1.0,space,3.8298,0.0,0.0,0.0,0.0,1.0,3.46,h,0.9042,,
5f32bc368853aa03df112fc6,,,,,,,,,NAN,,NAN,,0.0,49.0,49.0,49.0,1.0,50.0,Charlie,Rej,Participant_Images/5f32bc368853aa03df112fc6/5f32bc368853aa03df112fc6_Images/5f32bc368853aa03df112fc6_Image_14.jpeg,did not like,3.195382774,,,,,,,,,,,,,,
5f32bc368853aa03df112fc6,,,,,,,space,0.8845,NAN,,NAN,,0.0,50.0,50.0,50.0,1.0,51.0,Charlie,Rej,Participant_Images/5f32bc368853aa03df112fc6/5f32bc368853aa03df112fc6_Images/5f32bc368853aa03df112fc6_Image_10.jpeg,liked,1.779333479,,,,,,,,,,,,,,
5f32bc368853aa03df112fc6,,,,,,,space,0.7746,NAN,,NAN,,0.0,51.0,51.0,51.0,1.0,52.0,Charlie,Rej,Participant_Images/5f32bc368853aa03df112fc6/5f32bc368853aa03df112fc6_Images/5f32bc368853aa03df112fc6_Image_18.jpeg,liked,4.312468682,,,,,,,,,,,,,,
5f32bc368853aa03df112fc6,,,,,,,space,0.7938,NAN,,NAN,,0.0,52.0,52.0,52.0,1.0,53.0,Charlie,Rej,Participant_Images/5f32bc368853aa03df112fc6/5f32bc368853aa03df112fc6_Images/5f32bc368853aa03df112fc6_Image_24.jpeg,did not like,4.940433059,,,,,,,,,,,,,,
5f32bc368853aa03df112fc6,,,,,,,space,0.7505,NAN,,NAN,,0.0,53.0,53.0,53.0,1.0,54.0,Charlie,Rej,Participant_Images/5f32bc368853aa03df112fc6/5f32bc368853aa03df112fc6_Images/5f32bc368853aa03df112fc6_Image_17.jpeg,liked,2.7105123,,,,,,,,,,,,,,
5f32bc368853aa03df112fc6,,,,,,,,,,,,,,,,,,,,,,,,s,1.0,space,0.6008,0.0,0.0,0.0,0.0,1.0,1.9348,h,1.4179,,
5f32bc368853aa03df112fc6,,,,,,,,,NAN,,NAN,,0.0,54.0,54.0,54.0,1.0,55.0,Charlie,Rej,Participant_Images/5f32bc368853aa03df112fc6/5f32bc368853aa03df112fc6_Images/5f32bc368853aa03df112fc6_Image_9.jpeg,liked,3.602308302,,,,,,,,,,,,,,
5f32bc368853aa03df112fc6,,,,,,,space,2.6607,NAN,,NAN,,0.0,55.0,55.0,55.0,1.0,56.0,Charlie,Rej,Participant_Images/5f32bc368853aa03df112fc6/5f32bc368853aa03df112fc6_Images/5f32bc368853aa03df112fc6_Image_19.jpeg,liked,4.106391878,,,,,,,,,,,,,,
5f32bc368853aa03df112fc6,,,,,,,space,1.3169,NAN,,NAN,,0.0,56.0,56.0,56.0,1.0,57.0,Charlie,Rej,Participant_Images/5f32bc368853aa03df112fc6/5f32bc368853aa03df112fc6_Images/5f32bc368853aa03df112fc6_Image_16.jpeg,did not like,3.799433026,,,,,,,,,,,,,,
5f32bc368853aa03df112fc6,,,,,,,space,2.8061,NAN,,NAN,,0.0,57.0,57.0,57.0,1.0,58.0,Charlie,Rej,Participant_Images/5f32bc368853aa03df112fc6/5f32bc368853aa03df112fc6_Images/5f32bc368853aa03df112fc6_Image_26.jpeg,did not like,5.246980764,,,,,,,,,,,,,,
5f32bc368853aa03df112fc6,,,,,,,space,0.5727,NAN,,NAN,,0.0,58.0,58.0,58.0,1.0,59.0,Charlie,Rej,Participant_Images/5f32bc368853aa03df112fc6/5f32bc368853aa03df112fc6_Images/5f32bc368853aa03df112fc6_Image_7.jpeg,did not like,3.30081769,,,,,,,,,,,,,,
5f32bc368853aa03df112fc6,,,,,,,,,,,,,,,,,,,,,,,,s,1.0,space,2.0638,0.0,0.0,0.0,0.0,1.0,1.9182,h,0.8798,,
5f32bc368853aa03df112fc6,,,,,,,,,3,,5,,0.0,59.0,59.0,59.0,1.0,60.0,Charlie,Rej,Participant_Images/5f32bc368853aa03df112fc6/5f32bc368853aa03df112fc6_Images/5f32bc368853aa03df112fc6_Image_22.jpeg,did not like,1.661473164,,,,,,,,,,,,,,
5f32bc368853aa03df112fc6,,,,,space,2.2711,space,2.0671,NAN,,NAN,,0.0,60.0,60.0,60.0,1.0,61.0,Sam,Acc,Participant_Images/5f32bc368853aa03df112fc6/5f32bc368853aa03df112fc6_Images/5f32bc368853aa03df112fc6_Image_1.jpeg,liked,3.613205605,,,,,,,,,,,,,,
5f32bc368853aa03df112fc6,,,,,,,space,1.0677,NAN,,NAN,,0.0,61.0,61.0,61.0,1.0,62.0,Sam,Acc,Participant_Images/5f32bc368853aa03df112fc6/5f32bc368853aa03df112fc6_Images/5f32bc368853aa03df112fc6_Image_20.jpeg,did not like,4.988446431,,,,,,,,,,,,,,
5f32bc368853aa03df112fc6,,,,,,,space,1.4245,NAN,,NAN,,0.0,62.0,62.0,62.0,1.0,63.0,Sam,Acc,Participant_Images/5f32bc368853aa03df112fc6/5f32bc368853aa03df112fc6_Images/5f32bc368853aa03df112fc6_Image_17.jpeg,liked,3.470791822,,,,,,,,,,,,,,
5f32bc368853aa03df112fc6,,,,,,,space,2.0705,NAN,,NAN,,0.0,63.0,63.0,63.0,1.0,64.0,Sam,Acc,Participant_Images/5f32bc368853aa03df112fc6/5f32bc368853aa03df112fc6_Images/5f32bc368853aa03df112fc6_Image_18.jpeg,liked,3.820572462,,,,,,,,,,,,,,
5f32bc368853aa03df112fc6,,,,,,,,,,,,,,,,,,,,,,,,s,1.0,space,0.92,0.0,0.0,0.0,0.0,1.0,1.5153,h,0.7591,,
5f32bc368853aa03df112fc6,,,,,,,,,NAN,,NAN,,0.0,64.0,64.0,64.0,1.0,65.0,Sam,Acc,Participant_Images/5f32bc368853aa03df112fc6/5f32bc368853aa03df112fc6_Images/5f32bc368853aa03df112fc6_Image_2.jpeg,did not like,2.455989137,,,,,,,,,,,,,,
5f32bc368853aa03df112fc6,,,,,,,space,3.9528,NAN,,NAN,,0.0,65.0,65.0,65.0,1.0,66.0,Sam,Acc,Participant_Images/5f32bc368853aa03df112fc6/5f32bc368853aa03df112fc6_Images/5f32bc368853aa03df112fc6_Image_19.jpeg,did not like,3.79605092,,,,,,,,,,,,,,
5f32bc368853aa03df112fc6,,,,,,,space,0.9535,NAN,,NAN,,0.0,66.0,66.0,66.0,1.0,67.0,Sam,Acc,Participant_Images/5f32bc368853aa03df112fc6/5f32bc368853aa03df112fc6_Images/5f32bc368853aa03df112fc6_Image_10.jpeg,liked,3.562416326,,,,,,,,,,,,,,
5f32bc368853aa03df112fc6,,,,,,,space,0.7473,NAN,,NAN,,0.0,67.0,67.0,67.0,1.0,68.0,Sam,Acc,Participant_Images/5f32bc368853aa03df112fc6/5f32bc368853aa03df112fc6_Images/5f32bc368853aa03df112fc6_Image_8.jpeg,liked,2.843822497,,,,,,,,,,,,,,
5f32bc368853aa03df112fc6,,,,,,,space,1.6132,NAN,,NAN,,0.0,68.0,68.0,68.0,1.0,69.0,Sam,Acc,Participant_Images/5f32bc368853aa03df112fc6/5f32bc368853aa03df112fc6_Images/5f32bc368853aa03df112fc6_Image_23.jpeg,liked,3.546495948,,,,,,,,,,,,,,
5f32bc368853aa03df112fc6,,,,,,,,,,,,,,,,,,,,,,,,s,1.0,space,0.733,0.0,0.0,0.0,0.0,1.0,1.6874,l,1.8494,,
5f32bc368853aa03df112fc6,,,,,,,,,NAN,,NAN,,0.0,69.0,69.0,69.0,1.0,70.0,Sam,Acc,Participant_Images/5f32bc368853aa03df112fc6/5f32bc368853aa03df112fc6_Images/5f32bc368853aa03df112fc6_Image_7.jpeg,did not like,1.672012706,,,,,,,,,,,,,,
5f32bc368853aa03df112fc6,,,,,,,space,0.908,NAN,,NAN,,0.0,70.0,70.0,70.0,1.0,71.0,Sam,Acc,Participant_Images/5f32bc368853aa03df112fc6/5f32bc368853aa03df112fc6_Images/5f32bc368853aa03df112fc6_Image_4.jpeg,liked,4.942172136,,,,,,,,,,,,,,
5f32bc368853aa03df112fc6,,,,,,,space,1.5207,NAN,,NAN,,0.0,71.0,71.0,71.0,1.0,72.0,Sam,Acc,Participant_Images/5f32bc368853aa03df112fc6/5f32bc368853aa03df112fc6_Images/5f32bc368853aa03df112fc6_Image_12.jpeg,liked,2.50187214,,,,,,,,,,,,,,
5f32bc368853aa03df112fc6,,,,,,,space,0.7039,NAN,,NAN,,0.0,72.0,72.0,72.0,1.0,73.0,Sam,Acc,Participant_Images/5f32bc368853aa03df112fc6/5f32bc368853aa03df112fc6_Images/5f32bc368853aa03df112fc6_Image_5.jpeg,did not like,2.071164779,,,,,,,,,,,,,,
5f32bc368853aa03df112fc6,,,,,,,space,0.6073,NAN,,NAN,,0.0,73.0,73.0,73.0,1.0,74.0,Sam,Acc,Participant_Images/5f32bc368853aa03df112fc6/5f32bc368853aa03df112fc6_Images/5f32bc368853aa03df112fc6_Image_22.jpeg,liked,5.336503566,,,,,,,,,,,,,,
5f32bc368853aa03df112fc6,,,,,,,,,,,,,,,,,,,,,,,,c,0.0,space,6.6433,0.0,0.0,0.0,0.0,1.0,3.9633,,,,
5f32bc368853aa03df112fc6,,,,,,,,,NAN,,NAN,,0.0,74.0,74.0,74.0,1.0,75.0,Sam,Acc,Participant_Images/5f32bc368853aa03df112fc6/5f32bc368853aa03df112fc6_Images/5f32bc368853aa03df112fc6_Image_3.jpeg,liked,2.642157193,,,,,,,,,,,,,,
5f32bc368853aa03df112fc6,,,,,,,space,1.1171,NAN,,NAN,,0.0,75.0,75.0,75.0,1.0,76.0,Sam,Acc,Participant_Images/5f32bc368853aa03df112fc6/5f32bc368853aa03df112fc6_Images/5f32bc368853aa03df112fc6_Image_21.jpeg,liked,4.456234322,,,,,,,,,,,,,,
5f32bc368853aa03df112fc6,,,,,,,space,0.7172,NAN,,NAN,,0.0,76.0,76.0,76.0,1.0,77.0,Sam,Acc,Participant_Images/5f32bc368853aa03df112fc6/5f32bc368853aa03df112fc6_Images/5f32bc368853aa03df112fc6_Image_14.jpeg,liked,4.438512181,,,,,,,,,,,,,,
5f32bc368853aa03df112fc6,,,,,,,space,0.6306,NAN,,NAN,,0.0,77.0,77.0,77.0,1.0,78.0,Sam,Acc,Participant_Images/5f32bc368853aa03df112fc6/5f32bc368853aa03df112fc6_Images/5f32bc368853aa03df112fc6_Image_28.jpeg,liked,2.682944783,,,,,,,,,,,,,,
5f32bc368853aa03df112fc6,,,,,,,space,0.7204,NAN,,NAN,,0.0,78.0,78.0,78.0,1.0,79.0,Sam,Acc,Participant_Images/5f32bc368853aa03df112fc6/5f32bc368853aa03df112fc6_Images/5f32bc368853aa03df112fc6_Image_11.jpeg,did not like,4.51984296,,,,,,,,,,,,,,
5f32bc368853aa03df112fc6,,,,,,,,,,,,,,,,,,,,,,,,c,0.0,space,0.6904,0.0,0.0,0.0,0.0,1.0,1.6471,,,,
5f32bc368853aa03df112fc6,,,,,,,,,NAN,,NAN,,0.0,79.0,79.0,79.0,1.0,80.0,Sam,Acc,Participant_Images/5f32bc368853aa03df112fc6/5f32bc368853aa03df112fc6_Images/5f32bc368853aa03df112fc6_Image_16.jpeg,liked,3.195382774,,,,,,,,,,,,,,
5f32bc368853aa03df112fc6,,,,,,,space,0.1053,NAN,,NAN,,0.0,80.0,80.0,80.0,1.0,81.0,Sam,Acc,Participant_Images/5f32bc368853aa03df112fc6/5f32bc368853aa03df112fc6_Images/5f32bc368853aa03df112fc6_Image_9.jpeg,did not like,1.779333479,,,,,,,,,,,,,,
5f32bc368853aa03df112fc6,,,,,,,space,1.4597,NAN,,NAN,,0.0,81.0,81.0,81.0,1.0,82.0,Sam,Acc,Participant_Images/5f32bc368853aa03df112fc6/5f32bc368853aa03df112fc6_Images/5f32bc368853aa03df112fc6_Image_29.jpeg,liked,4.312468682,,,,,,,,,,,,,,
5f32bc368853aa03df112fc6,,,,,,,space,0.6651,NAN,,NAN,,0.0,82.0,82.0,82.0,1.0,83.0,Sam,Acc,Participant_Images/5f32bc368853aa03df112fc6/5f32bc368853aa03df112fc6_Images/5f32bc368853aa03df112fc6_Image_15.jpeg,liked,4.940433059,,,,,,,,,,,,,,
5f32bc368853aa03df112fc6,,,,,,,space,0.9126,NAN,,NAN,,0.0,83.0,83.0,83.0,1.0,84.0,Sam,Acc,Participant_Images/5f32bc368853aa03df112fc6/5f32bc368853aa03df112fc6_Images/5f32bc368853aa03df112fc6_Image_25.jpeg,did not like,2.7105123,,,,,,,,,,,,,,
5f32bc368853aa03df112fc6,,,,,,,,,,,,,,,,,,,,,,,,s,1.0,space,0.5502,0.0,0.0,0.0,0.0,1.0,1.4171,l,0.5833,,
5f32bc368853aa03df112fc6,,,,,,,,,NAN,,NAN,,0.0,84.0,84.0,84.0,1.0,85.0,Sam,Acc,Participant_Images/5f32bc368853aa03df112fc6/5f32bc368853aa03df112fc6_Images/5f32bc368853aa03df112fc6_Image_26.jpeg,liked,3.602308302,,,,,,,,,,,,,,
5f32bc368853aa03df112fc6,,,,,,,space,1.2443,NAN,,NAN,,0.0,85.0,85.0,85.0,1.0,86.0,Sam,Acc,Participant_Images/5f32bc368853aa03df112fc6/5f32bc368853aa03df112fc6_Images/5f32bc368853aa03df112fc6_Image_13.jpeg,liked,4.106391878,,,,,,,,,,,,,,
5f32bc368853aa03df112fc6,,,,,,,space,1.3408,NAN,,NAN,,0.0,86.0,86.0,86.0,1.0,87.0,Sam,Acc,Participant_Images/5f32bc368853aa03df112fc6/5f32bc368853aa03df112fc6_Images/5f32bc368853aa03df112fc6_Image_6.jpeg,liked,3.799433026,,,,,,,,,,,,,,
5f32bc368853aa03df112fc6,,,,,,,space,0.6538,NAN,,NAN,,0.0,87.0,87.0,87.0,1.0,88.0,Sam,Acc,Participant_Images/5f32bc368853aa03df112fc6/5f32bc368853aa03df112fc6_Images/5f32bc368853aa03df112fc6_Image_24.jpeg,liked,5.246980764,,,,,,,,,,,,,,
5f32bc368853aa03df112fc6,,,,,,,space,2.098,NAN,,NAN,,0.0,88.0,88.0,88.0,1.0,89.0,Sam,Acc,Participant_Images/5f32bc368853aa03df112fc6/5f32bc368853aa03df112fc6_Images/5f32bc368853aa03df112fc6_Image_30.jpeg,liked,3.30081769,,,,,,,,,,,,,,
5f32bc368853aa03df112fc6,,,,,,,,,,,,,,,,,,,,,,,,s,1.0,space,1.3502,0.0,0.0,0.0,0.0,1.0,2.8067,h,1.4773,,
5f32bc368853aa03df112fc6,,,,,,,,,5,,1,,0.0,89.0,89.0,89.0,1.0,90.0,Sam,Acc,Participant_Images/5f32bc368853aa03df112fc6/5f32bc368853aa03df112fc6_Images/5f32bc368853aa03df112fc6_Image_27.jpeg,did not like,1.661473164,,,,,,,,,,,,,,
5f32bc368853aa03df112fc6,,,,,space,2.7217,space,1.3946,NAN,,NAN,,0.0,90.0,90.0,90.0,1.0,91.0,Taylor,Acc,Participant_Images/5f32bc368853aa03df112fc6/5f32bc368853aa03df112fc6_Images/5f32bc368853aa03df112fc6_Image_23.jpeg,did not like,3.613205605,,,,,,,,,,,,,,
5f32bc368853aa03df112fc6,,,,,,,space,1.3521,NAN,,NAN,,0.0,91.0,91.0,91.0,1.0,92.0,Taylor,Acc,Participant_Images/5f32bc368853aa03df112fc6/5f32bc368853aa03df112fc6_Images/5f32bc368853aa03df112fc6_Image_6.jpeg,did not like,4.988446431,,,,,,,,,,,,,,
5f32bc368853aa03df112fc6,,,,,,,space,1.3739,NAN,,NAN,,0.0,92.0,92.0,92.0,1.0,93.0,Taylor,Acc,Participant_Images/5f32bc368853aa03df112fc6/5f32bc368853aa03df112fc6_Images/5f32bc368853aa03df112fc6_Image_22.jpeg,liked,3.470791822,,,,,,,,,,,,,,
5f32bc368853aa03df112fc6,,,,,,,space,1.1228,NAN,,NAN,,0.0,93.0,93.0,93.0,1.0,94.0,Taylor,Acc,Participant_Images/5f32bc368853aa03df112fc6/5f32bc368853aa03df112fc6_Images/5f32bc368853aa03df112fc6_Image_26.jpeg,liked,3.820572462,,,,,,,,,,,,,,
5f32bc368853aa03df112fc6,,,,,,,,,,,,,,,,,,,,,,,,s,1.0,space,1.4843,0.0,0.0,0.0,0.0,1.0,1.5391,h,0.7511,,
5f32bc368853aa03df112fc6,,,,,,,,,NAN,,NAN,,0.0,94.0,94.0,94.0,1.0,95.0,Taylor,Acc,Participant_Images/5f32bc368853aa03df112fc6/5f32bc368853aa03df112fc6_Images/5f32bc368853aa03df112fc6_Image_13.jpeg,liked,2.455989137,,,,,,,,,,,,,,
5f32bc368853aa03df112fc6,,,,,,,space,1.3178,NAN,,NAN,,0.0,95.0,95.0,95.0,1.0,96.0,Taylor,Acc,Participant_Images/5f32bc368853aa03df112fc6/5f32bc368853aa03df112fc6_Images/5f32bc368853aa03df112fc6_Image_27.jpeg,liked,3.79605092,,,,,,,,,,,,,,
5f32bc368853aa03df112fc6,,,,,,,space,1.1338,NAN,,NAN,,0.0,96.0,96.0,96.0,1.0,97.0,Taylor,Acc,Participant_Images/5f32bc368853aa03df112fc6/5f32bc368853aa03df112fc6_Images/5f32bc368853aa03df112fc6_Image_14.jpeg,did not like,3.562416326,,,,,,,,,,,,,,
5f32bc368853aa03df112fc6,,,,,,,space,7.331,NAN,,NAN,,0.0,97.0,97.0,97.0,1.0,98.0,Taylor,Acc,Participant_Images/5f32bc368853aa03df112fc6/5f32bc368853aa03df112fc6_Images/5f32bc368853aa03df112fc6_Image_11.jpeg,liked,2.843822497,,,,,,,,,,,,,,
5f32bc368853aa03df112fc6,,,,,,,space,3.722,NAN,,NAN,,0.0,98.0,98.0,98.0,1.0,99.0,Taylor,Acc,Participant_Images/5f32bc368853aa03df112fc6/5f32bc368853aa03df112fc6_Images/5f32bc368853aa03df112fc6_Image_28.jpeg,liked,3.546495948,,,,,,,,,,,,,,
5f32bc368853aa03df112fc6,,,,,,,,,,,,,,,,,,,,,,,,s,1.0,space,1.463,0.0,0.0,0.0,0.0,1.0,1.4526,h,1.4328,,
5f32bc368853aa03df112fc6,,,,,,,,,NAN,,NAN,,0.0,99.0,99.0,99.0,1.0,100.0,Taylor,Acc,Participant_Images/5f32bc368853aa03df112fc6/5f32bc368853aa03df112fc6_Images/5f32bc368853aa03df112fc6_Image_21.jpeg,liked,1.672012706,,,,,,,,,,,,,,
5f32bc368853aa03df112fc6,,,,,,,space,0.5579,NAN,,NAN,,0.0,100.0,100.0,100.0,1.0,101.0,Taylor,Acc,Participant_Images/5f32bc368853aa03df112fc6/5f32bc368853aa03df112fc6_Images/5f32bc368853aa03df112fc6_Image_16.jpeg,liked,4.942172136,,,,,,,,,,,,,,
5f32bc368853aa03df112fc6,,,,,,,space,0.8794,NAN,,NAN,,0.0,101.0,101.0,101.0,1.0,102.0,Taylor,Acc,Participant_Images/5f32bc368853aa03df112fc6/5f32bc368853aa03df112fc6_Images/5f32bc368853aa03df112fc6_Image_25.jpeg,did not like,2.50187214,,,,,,,,,,,,,,
5f32bc368853aa03df112fc6,,,,,,,space,2.0062,NAN,,NAN,,0.0,102.0,102.0,102.0,1.0,103.0,Taylor,Acc,Participant_Images/5f32bc368853aa03df112fc6/5f32bc368853aa03df112fc6_Images/5f32bc368853aa03df112fc6_Image_9.jpeg,liked,2.071164779,,,,,,,,,,,,,,
5f32bc368853aa03df112fc6,,,,,,,space,1.6807,NAN,,NAN,,0.0,103.0,103.0,103.0,1.0,104.0,Taylor,Acc,Participant_Images/5f32bc368853aa03df112fc6/5f32bc368853aa03df112fc6_Images/5f32bc368853aa03df112fc6_Image_15.jpeg,liked,5.336503566,,,,,,,,,,,,,,
5f32bc368853aa03df112fc6,,,,,,,,,,,,,,,,,,,,,,,,c,0.0,space,1.2006,0.0,0.0,0.0,0.0,1.0,3.6282,,,,
5f32bc368853aa03df112fc6,,,,,,,,,NAN,,NAN,,0.0,104.0,104.0,104.0,1.0,105.0,Taylor,Acc,Participant_Images/5f32bc368853aa03df112fc6/5f32bc368853aa03df112fc6_Images/5f32bc368853aa03df112fc6_Image_1.jpeg,liked,2.642157193,,,,,,,,,,,,,,
5f32bc368853aa03df112fc6,,,,,,,space,1.4462,NAN,,NAN,,0.0,105.0,105.0,105.0,1.0,106.0,Taylor,Acc,Participant_Images/5f32bc368853aa03df112fc6/5f32bc368853aa03df112fc6_Images/5f32bc368853aa03df112fc6_Image_20.jpeg,did not like,4.456234322,,,,,,,,,,,,,,
5f32bc368853aa03df112fc6,,,,,,,space,1.7125,NAN,,NAN,,0.0,106.0,106.0,106.0,1.0,107.0,Taylor,Acc,Participant_Images/5f32bc368853aa03df112fc6/5f32bc368853aa03df112fc6_Images/5f32bc368853aa03df112fc6_Image_8.jpeg,did not like,4.438512181,,,,,,,,,,,,,,
5f32bc368853aa03df112fc6,,,,,,,space,1.2333,NAN,,NAN,,0.0,107.0,107.0,107.0,1.0,108.0,Taylor,Acc,Participant_Images/5f32bc368853aa03df112fc6/5f32bc368853aa03df112fc6_Images/5f32bc368853aa03df112fc6_Image_12.jpeg,liked,2.682944783,,,,,,,,,,,,,,
5f32bc368853aa03df112fc6,,,,,,,space,1.5716,NAN,,NAN,,0.0,108.0,108.0,108.0,1.0,109.0,Taylor,Acc,Participant_Images/5f32bc368853aa03df112fc6/5f32bc368853aa03df112fc6_Images/5f32bc368853aa03df112fc6_Image_4.jpeg,liked,4.51984296,,,,,,,,,,,,,,
5f32bc368853aa03df112fc6,,,,,,,,,,,,,,,,,,,,,,,,c,0.0,space,1.186,0.0,0.0,0.0,0.0,1.0,1.7438,,,,
5f32bc368853aa03df112fc6,,,,,,,,,NAN,,NAN,,0.0,109.0,109.0,109.0,1.0,110.0,Taylor,Acc,Participant_Images/5f32bc368853aa03df112fc6/5f32bc368853aa03df112fc6_Images/5f32bc368853aa03df112fc6_Image_30.jpeg,liked,3.195382774,,,,,,,,,,,,,,
5f32bc368853aa03df112fc6,,,,,,,space,1.505,NAN,,NAN,,0.0,110.0,110.0,110.0,1.0,111.0,Taylor,Acc,Participant_Images/5f32bc368853aa03df112fc6/5f32bc368853aa03df112fc6_Images/5f32bc368853aa03df112fc6_Image_2.jpeg,liked,1.779333479,,,,,,,,,,,,,,
5f32bc368853aa03df112fc6,,,,,,,space,0.6217,NAN,,NAN,,0.0,111.0,111.0,111.0,1.0,112.0,Taylor,Acc,Participant_Images/5f32bc368853aa03df112fc6/5f32bc368853aa03df112fc6_Images/5f32bc368853aa03df112fc6_Image_10.jpeg,liked,4.312468682,,,,,,,,,,,,,,
5f32bc368853aa03df112fc6,,,,,,,space,2.5497,NAN,,NAN,,0.0,112.0,112.0,112.0,1.0,113.0,Taylor,Acc,Participant_Images/5f32bc368853aa03df112fc6/5f32bc368853aa03df112fc6_Images/5f32bc368853aa03df112fc6_Image_18.jpeg,did not like,4.940433059,,,,,,,,,,,,,,
5f32bc368853aa03df112fc6,,,,,,,space,1.0783,NAN,,NAN,,0.0,113.0,113.0,113.0,1.0,114.0,Taylor,Acc,Participant_Images/5f32bc368853aa03df112fc6/5f32bc368853aa03df112fc6_Images/5f32bc368853aa03df112fc6_Image_17.jpeg,liked,2.7105123,,,,,,,,,,,,,,
5f32bc368853aa03df112fc6,,,,,,,,,,,,,,,,,,,,,,,,c,0.0,space,0.646,0.0,0.0,0.0,0.0,1.0,1.5881,,,,
5f32bc368853aa03df112fc6,,,,,,,,,NAN,,NAN,,0.0,114.0,114.0,114.0,1.0,115.0,Taylor,Acc,Participant_Images/5f32bc368853aa03df112fc6/5f32bc368853aa03df112fc6_Images/5f32bc368853aa03df112fc6_Image_5.jpeg,liked,3.602308302,,,,,,,,,,,,,,
5f32bc368853aa03df112fc6,,,,,,,space,1.6458,NAN,,NAN,,0.0,115.0,115.0,115.0,1.0,116.0,Taylor,Acc,Participant_Images/5f32bc368853aa03df112fc6/5f32bc368853aa03df112fc6_Images/5f32bc368853aa03df112fc6_Image_29.jpeg,liked,4.106391878,,,,,,,,,,,,,,
5f32bc368853aa03df112fc6,,,,,,,space,0.6519,NAN,,NAN,,0.0,116.0,116.0,116.0,1.0,117.0,Taylor,Acc,Participant_Images/5f32bc368853aa03df112fc6/5f32bc368853aa03df112fc6_Images/5f32bc368853aa03df112fc6_Image_7.jpeg,did not like,3.799433026,,,,,,,,,,,,,,
5f32bc368853aa03df112fc6,,,,,,,space,0.7967,NAN,,NAN,,0.0,117.0,117.0,117.0,1.0,118.0,Taylor,Acc,Participant_Images/5f32bc368853aa03df112fc6/5f32bc368853aa03df112fc6_Images/5f32bc368853aa03df112fc6_Image_19.jpeg,liked,5.246980764,,,,,,,,,,,,,,
5f32bc368853aa03df112fc6,,,,,,,space,0.7596,NAN,,NAN,,0.0,118.0,118.0,118.0,1.0,119.0,Taylor,Acc,Participant_Images/5f32bc368853aa03df112fc6/5f32bc368853aa03df112fc6_Images/5f32bc368853aa03df112fc6_Image_3.jpeg,did not like,3.30081769,,,,,,,,,,,,,,
5f32bc368853aa03df112fc6,,,,,,,,,,,,,,,,,,,,,,,,s,1.0,space,2.3841,0.0,0.0,0.0,0.0,1.0,1.6129,h,0.9278,,
5f32bc368853aa03df112fc6,,,,,,,,,5,,1,,0.0,119.0,119.0,119.0,1.0,120.0,Taylor,Acc,Participant_Images/5f32bc368853aa03df112fc6/5f32bc368853aa03df112fc6_Images/5f32bc368853aa03df112fc6_Image_24.jpeg,liked,1.661473164,,,,,,,,,,,,,,
5f32bc368853aa03df112fc6,,,,,space,1.9198,space,1.1736,NAN,,NAN,,0.0,120.0,120.0,120.0,1.0,121.0,Riley,Neutral,Participant_Images/5f32bc368853aa03df112fc6/5f32bc368853aa03df112fc6_Images/5f32bc368853aa03df112fc6_Image_6.jpeg,did not like,3.613205605,,,,,,,,,,,,,,
5f32bc368853aa03df112fc6,,,,,,,space,0.6371,NAN,,NAN,,0.0,121.0,121.0,121.0,1.0,122.0,Riley,Neutral,Participant_Images/5f32bc368853aa03df112fc6/5f32bc368853aa03df112fc6_Images/5f32bc368853aa03df112fc6_Image_23.jpeg,did not like,4.988446431,,,,,,,,,,,,,,
5f32bc368853aa03df112fc6,,,,,,,space,20.8851,NAN,,NAN,,0.0,122.0,122.0,122.0,1.0,123.0,Riley,Neutral,Participant_Images/5f32bc368853aa03df112fc6/5f32bc368853aa03df112fc6_Images/5f32bc368853aa03df112fc6_Image_22.jpeg,did not like,3.470791822,,,,,,,,,,,,,,
5f32bc368853aa03df112fc6,,,,,,,space,0.8554,NAN,,NAN,,0.0,123.0,123.0,123.0,1.0,124.0,Riley,Neutral,Participant_Images/5f32bc368853aa03df112fc6/5f32bc368853aa03df112fc6_Images/5f32bc368853aa03df112fc6_Image_16.jpeg,did not like,3.820572462,,,,,,,,,,,,,,
5f32bc368853aa03df112fc6,,,,,,,,,,,,,,,,,,,,,,,,c,0.0,space,2.6981,0.0,0.0,0.0,0.0,1.0,1.4952,,,,
5f32bc368853aa03df112fc6,,,,,,,,,NAN,,NAN,,0.0,124.0,124.0,124.0,1.0,125.0,Riley,Neutral,Participant_Images/5f32bc368853aa03df112fc6/5f32bc368853aa03df112fc6_Images/5f32bc368853aa03df112fc6_Image_14.jpeg,did not like,2.455989137,,,,,,,,,,,,,,
5f32bc368853aa03df112fc6,,,,,,,space,5.8944,NAN,,NAN,,0.0,125.0,125.0,125.0,1.0,126.0,Riley,Neutral,Participant_Images/5f32bc368853aa03df112fc6/5f32bc368853aa03df112fc6_Images/5f32bc368853aa03df112fc6_Image_15.jpeg,did not like,3.79605092,,,,,,,,,,,,,,
5f32bc368853aa03df112fc6,,,,,,,space,0.5722,NAN,,NAN,,0.0,126.0,126.0,126.0,1.0,127.0,Riley,Neutral,Participant_Images/5f32bc368853aa03df112fc6/5f32bc368853aa03df112fc6_Images/5f32bc368853aa03df112fc6_Image_8.jpeg,liked,3.562416326,,,,,,,,,,,,,,
5f32bc368853aa03df112fc6,,,,,,,space,7.0888,NAN,,NAN,,0.0,127.0,127.0,127.0,1.0,128.0,Riley,Neutral,Participant_Images/5f32bc368853aa03df112fc6/5f32bc368853aa03df112fc6_Images/5f32bc368853aa03df112fc6_Image_2.jpeg,did not like,2.843822497,,,,,,,,,,,,,,
5f32bc368853aa03df112fc6,,,,,,,space,1.2915,NAN,,NAN,,0.0,128.0,128.0,128.0,1.0,129.0,Riley,Neutral,Participant_Images/5f32bc368853aa03df112fc6/5f32bc368853aa03df112fc6_Images/5f32bc368853aa03df112fc6_Image_12.jpeg,did not like,3.546495948,,,,,,,,,,,,,,
5f32bc368853aa03df112fc6,,,,,,,,,,,,,,,,,,,,,,,,c,0.0,space,1.0894,0.0,0.0,0.0,0.0,1.0,1.3154,,,,
5f32bc368853aa03df112fc6,,,,,,,,,NAN,,NAN,,0.0,129.0,129.0,129.0,1.0,130.0,Riley,Neutral,Participant_Images/5f32bc368853aa03df112fc6/5f32bc368853aa03df112fc6_Images/5f32bc368853aa03df112fc6_Image_30.jpeg,liked,1.672012706,,,,,,,,,,,,,,
5f32bc368853aa03df112fc6,,,,,,,space,0.5881,NAN,,NAN,,0.0,130.0,130.0,130.0,1.0,131.0,Riley,Neutral,Participant_Images/5f32bc368853aa03df112fc6/5f32bc368853aa03df112fc6_Images/5f32bc368853aa03df112fc6_Image_18.jpeg,liked,4.942172136,,,,,,,,,,,,,,
5f32bc368853aa03df112fc6,,,,,,,space,1.004,NAN,,NAN,,0.0,131.0,131.0,131.0,1.0,132.0,Riley,Neutral,Participant_Images/5f32bc368853aa03df112fc6/5f32bc368853aa03df112fc6_Images/5f32bc368853aa03df112fc6_Image_25.jpeg,liked,2.50187214,,,,,,,,,,,,,,
5f32bc368853aa03df112fc6,,,,,,,space,0.9713,NAN,,NAN,,0.0,132.0,132.0,132.0,1.0,133.0,Riley,Neutral,Participant_Images/5f32bc368853aa03df112fc6/5f32bc368853aa03df112fc6_Images/5f32bc368853aa03df112fc6_Image_4.jpeg,liked,2.071164779,,,,,,,,,,,,,,
5f32bc368853aa03df112fc6,,,,,,,space,1.7149,NAN,,NAN,,0.0,133.0,133.0,133.0,1.0,134.0,Riley,Neutral,Participant_Images/5f32bc368853aa03df112fc6/5f32bc368853aa03df112fc6_Images/5f32bc368853aa03df112fc6_Image_28.jpeg,did not like,5.336503566,,,,,,,,,,,,,,
5f32bc368853aa03df112fc6,,,,,,,,,,,,,,,,,,,,,,,,,999.0,space,4.1976,0.0,0.0,0.0,0.0,1.0,,,,,
5f32bc368853aa03df112fc6,,,,,,,,,NAN,,NAN,,0.0,134.0,134.0,134.0,1.0,135.0,Riley,Neutral,Participant_Images/5f32bc368853aa03df112fc6/5f32bc368853aa03df112fc6_Images/5f32bc368853aa03df112fc6_Image_19.jpeg,liked,2.642157193,,,,,,,,,,,,,,
5f32bc368853aa03df112fc6,,,,,,,space,1.1202,NAN,,NAN,,0.0,135.0,135.0,135.0,1.0,136.0,Riley,Neutral,Participant_Images/5f32bc368853aa03df112fc6/5f32bc368853aa03df112fc6_Images/5f32bc368853aa03df112fc6_Image_20.jpeg,liked,4.456234322,,,,,,,,,,,,,,
5f32bc368853aa03df112fc6,,,,,,,space,1.5402,NAN,,NAN,,0.0,136.0,136.0,136.0,1.0,137.0,Riley,Neutral,Participant_Images/5f32bc368853aa03df112fc6/5f32bc368853aa03df112fc6_Images/5f32bc368853aa03df112fc6_Image_21.jpeg,liked,4.438512181,,,,,,,,,,,,,,
5f32bc368853aa03df112fc6,,,,,,,space,3.8129,NAN,,NAN,,0.0,137.0,137.0,137.0,1.0,138.0,Riley,Neutral,Participant_Images/5f32bc368853aa03df112fc6/5f32bc368853aa03df112fc6_Images/5f32bc368853aa03df112fc6_Image_1.jpeg,liked,2.682944783,,,,,,,,,,,,,,
5f32bc368853aa03df112fc6,,,,,,,space,1.0163,NAN,,NAN,,0.0,138.0,138.0,138.0,1.0,139.0,Riley,Neutral,Participant_Images/5f32bc368853aa03df112fc6/5f32bc368853aa03df112fc6_Images/5f32bc368853aa03df112fc6_Image_13.jpeg,did not like,4.51984296,,,,,,,,,,,,,,
5f32bc368853aa03df112fc6,,,,,,,,,,,,,,,,,,,,,,,,c,0.0,space,0.7231,0.0,0.0,0.0,0.0,1.0,1.5516,,,,
5f32bc368853aa03df112fc6,,,,,,,,,NAN,,NAN,,0.0,139.0,139.0,139.0,1.0,140.0,Riley,Neutral,Participant_Images/5f32bc368853aa03df112fc6/5f32bc368853aa03df112fc6_Images/5f32bc368853aa03df112fc6_Image_5.jpeg,liked,3.195382774,,,,,,,,,,,,,,
5f32bc368853aa03df112fc6,,,,,,,space,0.5346,NAN,,NAN,,0.0,140.0,140.0,140.0,1.0,141.0,Riley,Neutral,Participant_Images/5f32bc368853aa03df112fc6/5f32bc368853aa03df112fc6_Images/5f32bc368853aa03df112fc6_Image_3.jpeg,liked,1.779333479,,,,,,,,,,,,,,
5f32bc368853aa03df112fc6,,,,,,,space,0.6393,NAN,,NAN,,0.0,141.0,141.0,141.0,1.0,142.0,Riley,Neutral,Participant_Images/5f32bc368853aa03df112fc6/5f32bc368853aa03df112fc6_Images/5f32bc368853aa03df112fc6_Image_7.jpeg,did not like,4.312468682,,,,,,,,,,,,,,
5f32bc368853aa03df112fc6,,,,,,,space,0.7716,NAN,,NAN,,0.0,142.0,142.0,142.0,1.0,143.0,Riley,Neutral,Participant_Images/5f32bc368853aa03df112fc6/5f32bc368853aa03df112fc6_Images/5f32bc368853aa03df112fc6_Image_9.jpeg,liked,4.940433059,,,,,,,,,,,,,,
5f32bc368853aa03df112fc6,,,,,,,space,0.8237,NAN,,NAN,,0.0,143.0,143.0,143.0,1.0,144.0,Riley,Neutral,Participant_Images/5f32bc368853aa03df112fc6/5f32bc368853aa03df112fc6_Images/5f32bc368853aa03df112fc6_Image_11.jpeg,did not like,2.7105123,,,,,,,,,,,,,,
5f32bc368853aa03df112fc6,,,,,,,,,,,,,,,,,,,,,,,,c,0.0,space,0.7821,0.0,0.0,0.0,0.0,1.0,1.2803,,,,
5f32bc368853aa03df112fc6,,,,,,,,,NAN,,NAN,,0.0,144.0,144.0,144.0,1.0,145.0,Riley,Neutral,Participant_Images/5f32bc368853aa03df112fc6/5f32bc368853aa03df112fc6_Images/5f32bc368853aa03df112fc6_Image_17.jpeg,liked,3.602308302,,,,,,,,,,,,,,
5f32bc368853aa03df112fc6,,,,,,,space,0.9843,NAN,,NAN,,0.0,145.0,145.0,145.0,1.0,146.0,Riley,Neutral,Participant_Images/5f32bc368853aa03df112fc6/5f32bc368853aa03df112fc6_Images/5f32bc368853aa03df112fc6_Image_24.jpeg,did not like,4.106391878,,,,,,,,,,,,,,
5f32bc368853aa03df112fc6,,,,,,,space,0.6766,NAN,,NAN,,0.0,146.0,146.0,146.0,1.0,147.0,Riley,Neutral,Participant_Images/5f32bc368853aa03df112fc6/5f32bc368853aa03df112fc6_Images/5f32bc368853aa03df112fc6_Image_10.jpeg,did not like,3.799433026,,,,,,,,,,,,,,
5f32bc368853aa03df112fc6,,,,,,,space,0.5693,NAN,,NAN,,0.0,147.0,147.0,147.0,1.0,148.0,Riley,Neutral,Participant_Images/5f32bc368853aa03df112fc6/5f32bc368853aa03df112fc6_Images/5f32bc368853aa03df112fc6_Image_29.jpeg,did not like,5.246980764,,,,,,,,,,,,,,
5f32bc368853aa03df112fc6,,,,,,,space,1.0358,NAN,,NAN,,0.0,148.0,148.0,148.0,1.0,149.0,Riley,Neutral,Participant_Images/5f32bc368853aa03df112fc6/5f32bc368853aa03df112fc6_Images/5f32bc368853aa03df112fc6_Image_26.jpeg,liked,3.30081769,,,,,,,,,,,,,,
5f32bc368853aa03df112fc6,,,,,,,,,,,,,,,,,,,,,,,,c,0.0,space,0.5626,0.0,0.0,0.0,0.0,1.0,1.6318,,,,
5f32bc368853aa03df112fc6,,,,,,,,,3,,3,,0.0,149.0,149.0,149.0,1.0,150.0,Riley,Neutral,Participant_Images/5f32bc368853aa03df112fc6/5f32bc368853aa03df112fc6_Images/5f32bc368853aa03df112fc6_Image_27.jpeg,liked,1.661473164,,,,,,,,,,,,,,
5f32bc368853aa03df112fc6,,,,,,,,,,,,,,,,,,,,,,,,,,,,,,,,,,,,space,14.0508
