endwelcomescreen_keys.keys,endwelcomescreen_keys.rt,endinstructionscreen_keys.keys,endinstructionscreen_keys.rt,endpartnermatch_keys.keys,endpartnermatch_keys.rt,sharenextphoto_key.keys,sharenextphoto_key.rt,salience_rating,key_resp.keys,stress_level,stresslevel_keypress.keys,entiretaskloop.thisRepN,entiretaskloop.thisTrialN,entiretaskloop.thisN,entiretaskloop.thisIndex,entiretaskloop.ran,TrialNumber,Partner,Condition,Photos,Feedback,FeedbackWait,choice_keys.keys,playlottery,resumeafterlottery_keys.keys,resumeafterlottery_keys.rt,lotteryloop.thisRepN,lotteryloop.thisTrialN,lotteryloop.thisN,lotteryloop.thisIndex,lotteryloop.ran,choice_keys.rt,lotteryguess_keys.keys,lotteryguess_keys.rt,end_screen_keys.keys,end_screen_keys.rt
space,2.4365,,,,,,,,,,,,,,,,,,,,,,,,,,,,,,,,,,,
,,,,,,,,,,,,,,,,,,,,,,,,,,,,,,,,,,,,
,,space,1.2933,,,,,,,,,,,,,,,,,,,,,,,,,,,,,,,,,
,,,,space,1.8788,space,0.8504,NAN,,NAN,,0,0,0,0,1,1,Alex,Rej,Participant_Images/5f32bc368853aa03df112fc6/5f32bc368853aa03df112fc6_Images/5f32bc368853aa03df112fc6_Image_16.jpeg,liked,3.613205605,,,,,,,,,,,,,,
,,,,,,space,0.7795,NAN,,NAN,,0,1,1,1,1,2,Alex,Rej,Participant_Images/5f32bc368853aa03df112fc6/5f32bc368853aa03df112fc6_Images/5f32bc368853aa03df112fc6_Image_25.jpeg,did not like,4.988446431,,,,,,,,,,,,,,
,,,,,,space,0.6336,NAN,,NAN,,0,2,2,2,1,3,Alex,Rej,Participant_Images/5f32bc368853aa03df112fc6/5f32bc368853aa03df112fc6_Images/5f32bc368853aa03df112fc6_Image_19.jpeg,liked,3.470791822,,,,,,,,,,,,,,
,,,,,,space,1.0504,NAN,,NAN,,0,3,3,3,1,4,Alex,Rej,Participant_Images/5f32bc368853aa03df112fc6/5f32bc368853aa03df112fc6_Images/5f32bc368853aa03df112fc6_Image_11.jpeg,did not like,3.820572462,,,,,,,,,,,,,,
,,,,,,,,,,,,,,,,,,,,,,,,999,space,3.4041,0,0,0,0,1,,,,,
,,,,,,,,NAN,,NAN,,0,4,4,4,1,5,Alex,Rej,Participant_Images/5f32bc368853aa03df112fc6/5f32bc368853aa03df112fc6_Images/5f32bc368853aa03df112fc6_Image_30.jpeg,did not like,2.455989137,,,,,,,,,,,,,,
,,,,,,space,19.7936,NAN,,NAN,,0,5,5,5,1,6,Alex,Rej,Participant_Images/5f32bc368853aa03df112fc6/5f32bc368853aa03df112fc6_Images/5f32bc368853aa03df112fc6_Image_4.jpeg,did not like,3.79605092,,,,,,,,,,,,,,
,,,,,,space,1.3251,NAN,,NAN,,0,6,6,6,1,7,Alex,Rej,Participant_Images/5f32bc368853aa03df112fc6/5f32bc368853aa03df112fc6_Images/5f32bc368853aa03df112fc6_Image_20.jpeg,did not like,3.562416326,,,,,,,,,,,,,,
,,,,,,space,0.7173,NAN,,NAN,,0,7,7,7,1,8,Alex,Rej,Participant_Images/5f32bc368853aa03df112fc6/5f32bc368853aa03df112fc6_Images/5f32bc368853aa03df112fc6_Image_6.jpeg,did not like,2.843822497,,,,,,,,,,,,,,
,,,,,,space,5.58,NAN,,NAN,,0,8,8,8,1,9,Alex,Rej,Participant_Images/5f32bc368853aa03df112fc6/5f32bc368853aa03df112fc6_Images/5f32bc368853aa03df112fc6_Image_5.jpeg,did not like,3.546495948,,,,,,,,,,,,,,
,,,,,,,,,,,,,,,,,,,,,,,,999,space,2.2998,0,0,0,0,1,,,,,
,,,,,,,,NAN,,NAN,,0,9,9,9,1,10,Alex,Rej,Participant_Images/5f32bc368853aa03df112fc6/5f32bc368853aa03df112fc6_Images/5f32bc368853aa03df112fc6_Image_24.jpeg,did not like,1.672012706,,,,,,,,,,,,,,
,,,,,,space,0.8564,NAN,,NAN,,0,10,10,10,1,11,Alex,Rej,Participant_Images/5f32bc368853aa03df112fc6/5f32bc368853aa03df112fc6_Images/5f32bc368853aa03df112fc6_Image_17.jpeg,liked,4.942172136,,,,,,,,,,,,,,
,,,,,,space,0.6452,NAN,,NAN,,0,11,11,11,1,12,Alex,Rej,Participant_Images/5f32bc368853aa03df112fc6/5f32bc368853aa03df112fc6_Images/5f32bc368853aa03df112fc6_Image_12.jpeg,did not like,2.50187214,,,,,,,,,,,,,,
,,,,,,space,0.8212,NAN,,NAN,,0,12,12,12,1,13,Alex,Rej,Participant_Images/5f32bc368853aa03df112fc6/5f32bc368853aa03df112fc6_Images/5f32bc368853aa03df112fc6_Image_15.jpeg,did not like,2.071164779,,,,,,,,,,,,,,
,,,,,,space,0.7668,NAN,,NAN,,0,13,13,13,1,14,Alex,Rej,Participant_Images/5f32bc368853aa03df112fc6/5f32bc368853aa03df112fc6_Images/5f32bc368853aa03df112fc6_Image_7.jpeg,liked,5.336503566,,,,,,,,,,,,,,
,,,,,,,,,,,,,,,,,,,,,,,s,1,space,0.9443,0,0,0,0,1,3.8723,h,2.5117,,
,,,,,,,,NAN,,NAN,,0,14,14,14,1,15,Alex,Rej,Participant_Images/5f32bc368853aa03df112fc6/5f32bc368853aa03df112fc6_Images/5f32bc368853aa03df112fc6_Image_18.jpeg,liked,2.642157193,,,,,,,,,,,,,,
,,,,,,space,1.1844,NAN,,NAN,,0,15,15,15,1,16,Alex,Rej,Participant_Images/5f32bc368853aa03df112fc6/5f32bc368853aa03df112fc6_Images/5f32bc368853aa03df112fc6_Image_27.jpeg,liked,4.456234322,,,,,,,,,,,,,,
,,,,,,space,0.7008,NAN,,NAN,,0,16,16,16,1,17,Alex,Rej,Participant_Images/5f32bc368853aa03df112fc6/5f32bc368853aa03df112fc6_Images/5f32bc368853aa03df112fc6_Image_2.jpeg,did not like,4.438512181,,,,,,,,,,,,,,
,,,,,,space,0.7327,NAN,,NAN,,0,17,17,17,1,18,Alex,Rej,Participant_Images/5f32bc368853aa03df112fc6/5f32bc368853aa03df112fc6_Images/5f32bc368853aa03df112fc6_Image_28.jpeg,did not like,2.682944783,,,,,,,,,,,,,,
,,,,,,space,0.8023,NAN,,NAN,,0,18,18,18,1,19,Alex,Rej,Participant_Images/5f32bc368853aa03df112fc6/5f32bc368853aa03df112fc6_Images/5f32bc368853aa03df112fc6_Image_21.jpeg,liked,4.51984296,,,,,,,,,,,,,,
,,,,,,,,,,,,,,,,,,,,,,,s,1,space,1.5084,0,0,0,0,1,3.226,,,,
,,,,,,,,NAN,,NAN,,0,19,19,19,1,20,Alex,Rej,Participant_Images/5f32bc368853aa03df112fc6/5f32bc368853aa03df112fc6_Images/5f32bc368853aa03df112fc6_Image_9.jpeg,did not like,3.195382774,,,,,,,,,,,,,,
,,,,,,space,0.7177,NAN,,NAN,,0,20,20,20,1,21,Alex,Rej,Participant_Images/5f32bc368853aa03df112fc6/5f32bc368853aa03df112fc6_Images/5f32bc368853aa03df112fc6_Image_26.jpeg,liked,1.779333479,,,,,,,,,,,,,,
,,,,,,space,0.6975,NAN,,NAN,,0,21,21,21,1,22,Alex,Rej,Participant_Images/5f32bc368853aa03df112fc6/5f32bc368853aa03df112fc6_Images/5f32bc368853aa03df112fc6_Image_3.jpeg,liked,4.312468682,,,,,,,,,,,,,,
,,,,,,space,0.838,NAN,,NAN,,0,22,22,22,1,23,Alex,Rej,Participant_Images/5f32bc368853aa03df112fc6/5f32bc368853aa03df112fc6_Images/5f32bc368853aa03df112fc6_Image_23.jpeg,did not like,4.940433059,,,,,,,,,,,,,,
,,,,,,space,0.7275,NAN,,NAN,,0,23,23,23,1,24,Alex,Rej,Participant_Images/5f32bc368853aa03df112fc6/5f32bc368853aa03df112fc6_Images/5f32bc368853aa03df112fc6_Image_10.jpeg,did not like,2.7105123,,,,,,,,,,,,,,
,,,,,,,,,,,,,,,,,,,,,,,s,1,space,2.7514,0,0,0,0,1,1.6796,h,2.9283,,
,,,,,,,,NAN,,NAN,,0,24,24,24,1,25,Alex,Rej,Participant_Images/5f32bc368853aa03df112fc6/5f32bc368853aa03df112fc6_Images/5f32bc368853aa03df112fc6_Image_1.jpeg,did not like,3.602308302,,,,,,,,,,,,,,
,,,,,,space,0.7042,NAN,,NAN,,0,25,25,25,1,26,Alex,Rej,Participant_Images/5f32bc368853aa03df112fc6/5f32bc368853aa03df112fc6_Images/5f32bc368853aa03df112fc6_Image_13.jpeg,did not like,4.106391878,,,,,,,,,,,,,,
,,,,,,space,0.7552,NAN,,NAN,,0,26,26,26,1,27,Alex,Rej,Participant_Images/5f32bc368853aa03df112fc6/5f32bc368853aa03df112fc6_Images/5f32bc368853aa03df112fc6_Image_22.jpeg,did not like,3.799433026,,,,,,,,,,,,,,
,,,,,,space,0.592,NAN,,NAN,,0,27,27,27,1,28,Alex,Rej,Participant_Images/5f32bc368853aa03df112fc6/5f32bc368853aa03df112fc6_Images/5f32bc368853aa03df112fc6_Image_29.jpeg,did not like,5.246980764,,,,,,,,,,,,,,
,,,,,,space,0.6522,NAN,,NAN,,0,28,28,28,1,29,Alex,Rej,Participant_Images/5f32bc368853aa03df112fc6/5f32bc368853aa03df112fc6_Images/5f32bc368853aa03df112fc6_Image_8.jpeg,did not like,3.30081769,,,,,,,,,,,,,,
,,,,,,,,,,,,,,,,,,,,,,,s,1,space,0.6954,0,0,0,0,1,1.4319,l,0.642,,
,,,,,,,,1,,4,,0,29,29,29,1,30,Alex,Rej,Participant_Images/5f32bc368853aa03df112fc6/5f32bc368853aa03df112fc6_Images/5f32bc368853aa03df112fc6_Image_14.jpeg,did not like,1.661473164,,,,,,,,,,,,,,
,,,,space,17.198,space,0.8148,NAN,,NAN,,0,30,30,30,1,31,Charlie,Rej,Participant_Images/5f32bc368853aa03df112fc6/5f32bc368853aa03df112fc6_Images/5f32bc368853aa03df112fc6_Image_3.jpeg,did not like,3.613205605,,,,,,,,,,,,,,
,,,,,,space,0.5743,NAN,,NAN,,0,31,31,31,1,32,Charlie,Rej,Participant_Images/5f32bc368853aa03df112fc6/5f32bc368853aa03df112fc6_Images/5f32bc368853aa03df112fc6_Image_4.jpeg,did not like,4.988446431,,,,,,,,,,,,,,
,,,,,,space,0.9211,NAN,,NAN,,0,32,32,32,1,33,Charlie,Rej,Participant_Images/5f32bc368853aa03df112fc6/5f32bc368853aa03df112fc6_Images/5f32bc368853aa03df112fc6_Image_23.jpeg,did not like,3.470791822,,,,,,,,,,,,,,
,,,,,,space,0.5954,NAN,,NAN,,0,33,33,33,1,34,Charlie,Rej,Participant_Images/5f32bc368853aa03df112fc6/5f32bc368853aa03df112fc6_Images/5f32bc368853aa03df112fc6_Image_12.jpeg,did not like,3.820572462,,,,,,,,,,,,,,
,,,,,,,,,,,,,,,,,,,,,,,s,1,space,2.2792,0,0,0,0,1,1.7212,h,2.5907,,
,,,,,,,,NAN,,NAN,,0,34,34,34,1,35,Charlie,Rej,Participant_Images/5f32bc368853aa03df112fc6/5f32bc368853aa03df112fc6_Images/5f32bc368853aa03df112fc6_Image_5.jpeg,did not like,2.455989137,,,,,,,,,,,,,,
,,,,,,space,5.0849,NAN,,NAN,,0,35,35,35,1,36,Charlie,Rej,Participant_Images/5f32bc368853aa03df112fc6/5f32bc368853aa03df112fc6_Images/5f32bc368853aa03df112fc6_Image_1.jpeg,did not like,3.79605092,,,,,,,,,,,,,,
,,,,,,space,0.6217,NAN,,NAN,,0,36,36,36,1,37,Charlie,Rej,Participant_Images/5f32bc368853aa03df112fc6/5f32bc368853aa03df112fc6_Images/5f32bc368853aa03df112fc6_Image_2.jpeg,did not like,3.562416326,,,,,,,,,,,,,,
,,,,,,space,2.1135,NAN,,NAN,,0,37,37,37,1,38,Charlie,Rej,Participant_Images/5f32bc368853aa03df112fc6/5f32bc368853aa03df112fc6_Images/5f32bc368853aa03df112fc6_Image_27.jpeg,liked,2.843822497,,,,,,,,,,,,,,
,,,,,,space,0.9064,NAN,,NAN,,0,38,38,38,1,39,Charlie,Rej,Participant_Images/5f32bc368853aa03df112fc6/5f32bc368853aa03df112fc6_Images/5f32bc368853aa03df112fc6_Image_13.jpeg,liked,3.546495948,,,,,,,,,,,,,,
,,,,,,,,,,,,,,,,,,,,,,,s,1,space,0.7036,0,0,0,0,1,1.4556,l,1.6526,,
,,,,,,,,NAN,,NAN,,0,39,39,39,1,40,Charlie,Rej,Participant_Images/5f32bc368853aa03df112fc6/5f32bc368853aa03df112fc6_Images/5f32bc368853aa03df112fc6_Image_28.jpeg,did not like,1.672012706,,,,,,,,,,,,,,
,,,,,,space,0.7731,NAN,,NAN,,0,40,40,40,1,41,Charlie,Rej,Participant_Images/5f32bc368853aa03df112fc6/5f32bc368853aa03df112fc6_Images/5f32bc368853aa03df112fc6_Image_8.jpeg,did not like,4.942172136,,,,,,,,,,,,,,
,,,,,,space,0.5447,NAN,,NAN,,0,41,41,41,1,42,Charlie,Rej,Participant_Images/5f32bc368853aa03df112fc6/5f32bc368853aa03df112fc6_Images/5f32bc368853aa03df112fc6_Image_6.jpeg,liked,2.50187214,,,,,,,,,,,,,,
,,,,,,space,0.8732,NAN,,NAN,,0,42,42,42,1,43,Charlie,Rej,Participant_Images/5f32bc368853aa03df112fc6/5f32bc368853aa03df112fc6_Images/5f32bc368853aa03df112fc6_Image_11.jpeg,did not like,2.071164779,,,,,,,,,,,,,,
,,,,,,space,0.5501,NAN,,NAN,,0,43,43,43,1,44,Charlie,Rej,Participant_Images/5f32bc368853aa03df112fc6/5f32bc368853aa03df112fc6_Images/5f32bc368853aa03df112fc6_Image_29.jpeg,did not like,5.336503566,,,,,,,,,,,,,,
,,,,,,,,,,,,,,,,,,,,,,,s,1,space,1.3628,0,0,0,0,1,1.7007,,,,
,,,,,,,,NAN,,NAN,,0,44,44,44,1,45,Charlie,Rej,Participant_Images/5f32bc368853aa03df112fc6/5f32bc368853aa03df112fc6_Images/5f32bc368853aa03df112fc6_Image_21.jpeg,did not like,2.642157193,,,,,,,,,,,,,,
,,,,,,space,0.6689,NAN,,NAN,,0,45,45,45,1,46,Charlie,Rej,Participant_Images/5f32bc368853aa03df112fc6/5f32bc368853aa03df112fc6_Images/5f32bc368853aa03df112fc6_Image_30.jpeg,liked,4.456234322,,,,,,,,,,,,,,
,,,,,,space,2.6802,NAN,,NAN,,0,46,46,46,1,47,Charlie,Rej,Participant_Images/5f32bc368853aa03df112fc6/5f32bc368853aa03df112fc6_Images/5f32bc368853aa03df112fc6_Image_20.jpeg,did not like,4.438512181,,,,,,,,,,,,,,
,,,,,,space,3.3612,NAN,,NAN,,0,47,47,47,1,48,Charlie,Rej,Participant_Images/5f32bc368853aa03df112fc6/5f32bc368853aa03df112fc6_Images/5f32bc368853aa03df112fc6_Image_15.jpeg,did not like,2.682944783,,,,,,,,,,,,,,
,,,,,,space,0.5811,NAN,,NAN,,0,48,48,48,1,49,Charlie,Rej,Participant_Images/5f32bc368853aa03df112fc6/5f32bc368853aa03df112fc6_Images/5f32bc368853aa03df112fc6_Image_25.jpeg,did not like,4.51984296,,,,,,,,,,,,,,
,,,,,,,,,,,,,,,,,,,,,,,s,1,space,3.8298,0,0,0,0,1,3.46,h,0.9042,,
,,,,,,,,NAN,,NAN,,0,49,49,49,1,50,Charlie,Rej,Participant_Images/5f32bc368853aa03df112fc6/5f32bc368853aa03df112fc6_Images/5f32bc368853aa03df112fc6_Image_14.jpeg,did not like,3.195382774,,,,,,,,,,,,,,
,,,,,,space,0.8845,NAN,,NAN,,0,50,50,50,1,51,Charlie,Rej,Participant_Images/5f32bc368853aa03df112fc6/5f32bc368853aa03df112fc6_Images/5f32bc368853aa03df112fc6_Image_10.jpeg,liked,1.779333479,,,,,,,,,,,,,,
,,,,,,space,0.7746,NAN,,NAN,,0,51,51,51,1,52,Charlie,Rej,Participant_Images/5f32bc368853aa03df112fc6/5f32bc368853aa03df112fc6_Images/5f32bc368853aa03df112fc6_Image_18.jpeg,liked,4.312468682,,,,,,,,,,,,,,
,,,,,,space,0.7938,NAN,,NAN,,0,52,52,52,1,53,Charlie,Rej,Participant_Images/5f32bc368853aa03df112fc6/5f32bc368853aa03df112fc6_Images/5f32bc368853aa03df112fc6_Image_24.jpeg,did not like,4.940433059,,,,,,,,,,,,,,
,,,,,,space,0.7505,NAN,,NAN,,0,53,53,53,1,54,Charlie,Rej,Participant_Images/5f32bc368853aa03df112fc6/5f32bc368853aa03df112fc6_Images/5f32bc368853aa03df112fc6_Image_17.jpeg,liked,2.7105123,,,,,,,,,,,,,,
,,,,,,,,,,,,,,,,,,,,,,,s,1,space,0.6008,0,0,0,0,1,1.9348,h,1.4179,,
,,,,,,,,NAN,,NAN,,0,54,54,54,1,55,Charlie,Rej,Participant_Images/5f32bc368853aa03df112fc6/5f32bc368853aa03df112fc6_Images/5f32bc368853aa03df112fc6_Image_9.jpeg,liked,3.602308302,,,,,,,,,,,,,,
,,,,,,space,2.6607,NAN,,NAN,,0,55,55,55,1,56,Charlie,Rej,Participant_Images/5f32bc368853aa03df112fc6/5f32bc368853aa03df112fc6_Images/5f32bc368853aa03df112fc6_Image_19.jpeg,liked,4.106391878,,,,,,,,,,,,,,
,,,,,,space,1.3169,NAN,,NAN,,0,56,56,56,1,57,Charlie,Rej,Participant_Images/5f32bc368853aa03df112fc6/5f32bc368853aa03df112fc6_Images/5f32bc368853aa03df112fc6_Image_16.jpeg,did not like,3.799433026,,,,,,,,,,,,,,
,,,,,,space,2.8061,NAN,,NAN,,0,57,57,57,1,58,Charlie,Rej,Participant_Images/5f32bc368853aa03df112fc6/5f32bc368853aa03df112fc6_Images/5f32bc368853aa03df112fc6_Image_26.jpeg,did not like,5.246980764,,,,,,,,,,,,,,
,,,,,,space,0.5727,NAN,,NAN,,0,58,58,58,1,59,Charlie,Rej,Participant_Images/5f32bc368853aa03df112fc6/5f32bc368853aa03df112fc6_Images/5f32bc368853aa03df112fc6_Image_7.jpeg,did not like,3.30081769,,,,,,,,,,,,,,
,,,,,,,,,,,,,,,,,,,,,,,s,1,space,2.0638,0,0,0,0,1,1.9182,h,0.8798,,
,,,,,,,,3,,5,,0,59,59,59,1,60,Charlie,Rej,Participant_Images/5f32bc368853aa03df112fc6/5f32bc368853aa03df112fc6_Images/5f32bc368853aa03df112fc6_Image_22.jpeg,did not like,1.661473164,,,,,,,,,,,,,,
,,,,space,2.2711,space,2.0671,NAN,,NAN,,0,60,60,60,1,61,Sam,Acc,Participant_Images/5f32bc368853aa03df112fc6/5f32bc368853aa03df112fc6_Images/5f32bc368853aa03df112fc6_Image_1.jpeg,liked,3.613205605,,,,,,,,,,,,,,
,,,,,,space,1.0677,NAN,,NAN,,0,61,61,61,1,62,Sam,Acc,Participant_Images/5f32bc368853aa03df112fc6/5f32bc368853aa03df112fc6_Images/5f32bc368853aa03df112fc6_Image_20.jpeg,did not like,4.988446431,,,,,,,,,,,,,,
,,,,,,space,1.4245,NAN,,NAN,,0,62,62,62,1,63,Sam,Acc,Participant_Images/5f32bc368853aa03df112fc6/5f32bc368853aa03df112fc6_Images/5f32bc368853aa03df112fc6_Image_17.jpeg,liked,3.470791822,,,,,,,,,,,,,,
,,,,,,space,2.0705,NAN,,NAN,,0,63,63,63,1,64,Sam,Acc,Participant_Images/5f32bc368853aa03df112fc6/5f32bc368853aa03df112fc6_Images/5f32bc368853aa03df112fc6_Image_18.jpeg,liked,3.820572462,,,,,,,,,,,,,,
,,,,,,,,,,,,,,,,,,,,,,,s,1,space,0.92,0,0,0,0,1,1.5153,h,0.7591,,
,,,,,,,,NAN,,NAN,,0,64,64,64,1,65,Sam,Acc,Participant_Images/5f32bc368853aa03df112fc6/5f32bc368853aa03df112fc6_Images/5f32bc368853aa03df112fc6_Image_2.jpeg,did not like,2.455989137,,,,,,,,,,,,,,
,,,,,,space,3.9528,NAN,,NAN,,0,65,65,65,1,66,Sam,Acc,Participant_Images/5f32bc368853aa03df112fc6/5f32bc368853aa03df112fc6_Images/5f32bc368853aa03df112fc6_Image_19.jpeg,did not like,3.79605092,,,,,,,,,,,,,,
,,,,,,space,0.9535,NAN,,NAN,,0,66,66,66,1,67,Sam,Acc,Participant_Images/5f32bc368853aa03df112fc6/5f32bc368853aa03df112fc6_Images/5f32bc368853aa03df112fc6_Image_10.jpeg,liked,3.562416326,,,,,,,,,,,,,,
,,,,,,space,0.7473,NAN,,NAN,,0,67,67,67,1,68,Sam,Acc,Participant_Images/5f32bc368853aa03df112fc6/5f32bc368853aa03df112fc6_Images/5f32bc368853aa03df112fc6_Image_8.jpeg,liked,2.843822497,,,,,,,,,,,,,,
,,,,,,space,1.6132,NAN,,NAN,,0,68,68,68,1,69,Sam,Acc,Participant_Images/5f32bc368853aa03df112fc6/5f32bc368853aa03df112fc6_Images/5f32bc368853aa03df112fc6_Image_23.jpeg,liked,3.546495948,,,,,,,,,,,,,,
,,,,,,,,,,,,,,,,,,,,,,,s,1,space,0.733,0,0,0,0,1,1.6874,l,1.8494,,
,,,,,,,,NAN,,NAN,,0,69,69,69,1,70,Sam,Acc,Participant_Images/5f32bc368853aa03df112fc6/5f32bc368853aa03df112fc6_Images/5f32bc368853aa03df112fc6_Image_7.jpeg,did not like,1.672012706,,,,,,,,,,,,,,
,,,,,,space,0.908,NAN,,NAN,,0,70,70,70,1,71,Sam,Acc,Participant_Images/5f32bc368853aa03df112fc6/5f32bc368853aa03df112fc6_Images/5f32bc368853aa03df112fc6_Image_4.jpeg,liked,4.942172136,,,,,,,,,,,,,,
,,,,,,space,1.5207,NAN,,NAN,,0,71,71,71,1,72,Sam,Acc,Participant_Images/5f32bc368853aa03df112fc6/5f32bc368853aa03df112fc6_Images/5f32bc368853aa03df112fc6_Image_12.jpeg,liked,2.50187214,,,,,,,,,,,,,,
,,,,,,space,0.7039,NAN,,NAN,,0,72,72,72,1,73,Sam,Acc,Participant_Images/5f32bc368853aa03df112fc6/5f32bc368853aa03df112fc6_Images/5f32bc368853aa03df112fc6_Image_5.jpeg,did not like,2.071164779,,,,,,,,,,,,,,
,,,,,,space,0.6073,NAN,,NAN,,0,73,73,73,1,74,Sam,Acc,Participant_Images/5f32bc368853aa03df112fc6/5f32bc368853aa03df112fc6_Images/5f32bc368853aa03df112fc6_Image_22.jpeg,liked,5.336503566,,,,,,,,,,,,,,
,,,,,,,,,,,,,,,,,,,,,,,c,0,space,6.6433,0,0,0,0,1,3.9633,,,,
,,,,,,,,NAN,,NAN,,0,74,74,74,1,75,Sam,Acc,Participant_Images/5f32bc368853aa03df112fc6/5f32bc368853aa03df112fc6_Images/5f32bc368853aa03df112fc6_Image_3.jpeg,liked,2.642157193,,,,,,,,,,,,,,
,,,,,,space,1.1171,NAN,,NAN,,0,75,75,75,1,76,Sam,Acc,Participant_Images/5f32bc368853aa03df112fc6/5f32bc368853aa03df112fc6_Images/5f32bc368853aa03df112fc6_Image_21.jpeg,liked,4.456234322,,,,,,,,,,,,,,
,,,,,,space,0.7172,NAN,,NAN,,0,76,76,76,1,77,Sam,Acc,Participant_Images/5f32bc368853aa03df112fc6/5f32bc368853aa03df112fc6_Images/5f32bc368853aa03df112fc6_Image_14.jpeg,liked,4.438512181,,,,,,,,,,,,,,
,,,,,,space,0.6306,NAN,,NAN,,0,77,77,77,1,78,Sam,Acc,Participant_Images/5f32bc368853aa03df112fc6/5f32bc368853aa03df112fc6_Images/5f32bc368853aa03df112fc6_Image_28.jpeg,liked,2.682944783,,,,,,,,,,,,,,
,,,,,,space,0.7204,NAN,,NAN,,0,78,78,78,1,79,Sam,Acc,Participant_Images/5f32bc368853aa03df112fc6/5f32bc368853aa03df112fc6_Images/5f32bc368853aa03df112fc6_Image_11.jpeg,did not like,4.51984296,,,,,,,,,,,,,,
,,,,,,,,,,,,,,,,,,,,,,,c,0,space,0.6904,0,0,0,0,1,1.6471,,,,
,,,,,,,,NAN,,NAN,,0,79,79,79,1,80,Sam,Acc,Participant_Images/5f32bc368853aa03df112fc6/5f32bc368853aa03df112fc6_Images/5f32bc368853aa03df112fc6_Image_16.jpeg,liked,3.195382774,,,,,,,,,,,,,,
,,,,,,space,0.1053,NAN,,NAN,,0,80,80,80,1,81,Sam,Acc,Participant_Images/5f32bc368853aa03df112fc6/5f32bc368853aa03df112fc6_Images/5f32bc368853aa03df112fc6_Image_9.jpeg,did not like,1.779333479,,,,,,,,,,,,,,
,,,,,,space,1.4597,NAN,,NAN,,0,81,81,81,1,82,Sam,Acc,Participant_Images/5f32bc368853aa03df112fc6/5f32bc368853aa03df112fc6_Images/5f32bc368853aa03df112fc6_Image_29.jpeg,liked,4.312468682,,,,,,,,,,,,,,
,,,,,,space,0.6651,NAN,,NAN,,0,82,82,82,1,83,Sam,Acc,Participant_Images/5f32bc368853aa03df112fc6/5f32bc368853aa03df112fc6_Images/5f32bc368853aa03df112fc6_Image_15.jpeg,liked,4.940433059,,,,,,,,,,,,,,
,,,,,,space,0.9126,NAN,,NAN,,0,83,83,83,1,84,Sam,Acc,Participant_Images/5f32bc368853aa03df112fc6/5f32bc368853aa03df112fc6_Images/5f32bc368853aa03df112fc6_Image_25.jpeg,did not like,2.7105123,,,,,,,,,,,,,,
,,,,,,,,,,,,,,,,,,,,,,,s,1,space,0.5502,0,0,0,0,1,1.4171,l,0.5833,,
,,,,,,,,NAN,,NAN,,0,84,84,84,1,85,Sam,Acc,Participant_Images/5f32bc368853aa03df112fc6/5f32bc368853aa03df112fc6_Images/5f32bc368853aa03df112fc6_Image_26.jpeg,liked,3.602308302,,,,,,,,,,,,,,
,,,,,,space,1.2443,NAN,,NAN,,0,85,85,85,1,86,Sam,Acc,Participant_Images/5f32bc368853aa03df112fc6/5f32bc368853aa03df112fc6_Images/5f32bc368853aa03df112fc6_Image_13.jpeg,liked,4.106391878,,,,,,,,,,,,,,
,,,,,,space,1.3408,NAN,,NAN,,0,86,86,86,1,87,Sam,Acc,Participant_Images/5f32bc368853aa03df112fc6/5f32bc368853aa03df112fc6_Images/5f32bc368853aa03df112fc6_Image_6.jpeg,liked,3.799433026,,,,,,,,,,,,,,
,,,,,,space,0.6538,NAN,,NAN,,0,87,87,87,1,88,Sam,Acc,Participant_Images/5f32bc368853aa03df112fc6/5f32bc368853aa03df112fc6_Images/5f32bc368853aa03df112fc6_Image_24.jpeg,liked,5.246980764,,,,,,,,,,,,,,
,,,,,,space,2.098,NAN,,NAN,,0,88,88,88,1,89,Sam,Acc,Participant_Images/5f32bc368853aa03df112fc6/5f32bc368853aa03df112fc6_Images/5f32bc368853aa03df112fc6_Image_30.jpeg,liked,3.30081769,,,,,,,,,,,,,,
,,,,,,,,,,,,,,,,,,,,,,,s,1,space,1.3502,0,0,0,0,1,2.8067,h,1.4773,,
,,,,,,,,5,,1,,0,89,89,89,1,90,Sam,Acc,Participant_Images/5f32bc368853aa03df112fc6/5f32bc368853aa03df112fc6_Images/5f32bc368853aa03df112fc6_Image_27.jpeg,did not like,1.661473164,,,,,,,,,,,,,,
,,,,space,2.7217,space,1.3946,NAN,,NAN,,0,90,90,90,1,91,Taylor,Acc,Participant_Images/5f32bc368853aa03df112fc6/5f32bc368853aa03df112fc6_Images/5f32bc368853aa03df112fc6_Image_23.jpeg,did not like,3.613205605,,,,,,,,,,,,,,
,,,,,,space,1.3521,NAN,,NAN,,0,91,91,91,1,92,Taylor,Acc,Participant_Images/5f32bc368853aa03df112fc6/5f32bc368853aa03df112fc6_Images/5f32bc368853aa03df112fc6_Image_6.jpeg,did not like,4.988446431,,,,,,,,,,,,,,
,,,,,,space,1.3739,NAN,,NAN,,0,92,92,92,1,93,Taylor,Acc,Participant_Images/5f32bc368853aa03df112fc6/5f32bc368853aa03df112fc6_Images/5f32bc368853aa03df112fc6_Image_22.jpeg,liked,3.470791822,,,,,,,,,,,,,,
,,,,,,space,1.1228,NAN,,NAN,,0,93,93,93,1,94,Taylor,Acc,Participant_Images/5f32bc368853aa03df112fc6/5f32bc368853aa03df112fc6_Images/5f32bc368853aa03df112fc6_Image_26.jpeg,liked,3.820572462,,,,,,,,,,,,,,
,,,,,,,,,,,,,,,,,,,,,,,s,1,space,1.4843,0,0,0,0,1,1.5391,h,0.7511,,
,,,,,,,,NAN,,NAN,,0,94,94,94,1,95,Taylor,Acc,Participant_Images/5f32bc368853aa03df112fc6/5f32bc368853aa03df112fc6_Images/5f32bc368853aa03df112fc6_Image_13.jpeg,liked,2.455989137,,,,,,,,,,,,,,
,,,,,,space,1.3178,NAN,,NAN,,0,95,95,95,1,96,Taylor,Acc,Participant_Images/5f32bc368853aa03df112fc6/5f32bc368853aa03df112fc6_Images/5f32bc368853aa03df112fc6_Image_27.jpeg,liked,3.79605092,,,,,,,,,,,,,,
,,,,,,space,1.1338,NAN,,NAN,,0,96,96,96,1,97,Taylor,Acc,Participant_Images/5f32bc368853aa03df112fc6/5f32bc368853aa03df112fc6_Images/5f32bc368853aa03df112fc6_Image_14.jpeg,did not like,3.562416326,,,,,,,,,,,,,,
,,,,,,space,7.331,NAN,,NAN,,0,97,97,97,1,98,Taylor,Acc,Participant_Images/5f32bc368853aa03df112fc6/5f32bc368853aa03df112fc6_Images/5f32bc368853aa03df112fc6_Image_11.jpeg,liked,2.843822497,,,,,,,,,,,,,,
,,,,,,space,3.722,NAN,,NAN,,0,98,98,98,1,99,Taylor,Acc,Participant_Images/5f32bc368853aa03df112fc6/5f32bc368853aa03df112fc6_Images/5f32bc368853aa03df112fc6_Image_28.jpeg,liked,3.546495948,,,,,,,,,,,,,,
,,,,,,,,,,,,,,,,,,,,,,,s,1,space,1.463,0,0,0,0,1,1.4526,h,1.4328,,
,,,,,,,,NAN,,NAN,,0,99,99,99,1,100,Taylor,Acc,Participant_Images/5f32bc368853aa03df112fc6/5f32bc368853aa03df112fc6_Images/5f32bc368853aa03df112fc6_Image_21.jpeg,liked,1.672012706,,,,,,,,,,,,,,
,,,,,,space,0.5579,NAN,,NAN,,0,100,100,100,1,101,Taylor,Acc,Participant_Images/5f32bc368853aa03df112fc6/5f32bc368853aa03df112fc6_Images/5f32bc368853aa03df112fc6_Image_16.jpeg,liked,4.942172136,,,,,,,,,,,,,,
,,,,,,space,0.8794,NAN,,NAN,,0,101,101,101,1,102,Taylor,Acc,Participant_Images/5f32bc368853aa03df112fc6/5f32bc368853aa03df112fc6_Images/5f32bc368853aa03df112fc6_Image_25.jpeg,did not like,2.50187214,,,,,,,,,,,,,,
,,,,,,space,2.0062,NAN,,NAN,,0,102,102,102,1,103,Taylor,Acc,Participant_Images/5f32bc368853aa03df112fc6/5f32bc368853aa03df112fc6_Images/5f32bc368853aa03df112fc6_Image_9.jpeg,liked,2.071164779,,,,,,,,,,,,,,
,,,,,,space,1.6807,NAN,,NAN,,0,103,103,103,1,104,Taylor,Acc,Participant_Images/5f32bc368853aa03df112fc6/5f32bc368853aa03df112fc6_Images/5f32bc368853aa03df112fc6_Image_15.jpeg,liked,5.336503566,,,,,,,,,,,,,,
,,,,,,,,,,,,,,,,,,,,,,,c,0,space,1.2006,0,0,0,0,1,3.6282,,,,
,,,,,,,,NAN,,NAN,,0,104,104,104,1,105,Taylor,Acc,Participant_Images/5f32bc368853aa03df112fc6/5f32bc368853aa03df112fc6_Images/5f32bc368853aa03df112fc6_Image_1.jpeg,liked,2.642157193,,,,,,,,,,,,,,
,,,,,,space,1.4462,NAN,,NAN,,0,105,105,105,1,106,Taylor,Acc,Participant_Images/5f32bc368853aa03df112fc6/5f32bc368853aa03df112fc6_Images/5f32bc368853aa03df112fc6_Image_20.jpeg,did not like,4.456234322,,,,,,,,,,,,,,
,,,,,,space,1.7125,NAN,,NAN,,0,106,106,106,1,107,Taylor,Acc,Participant_Images/5f32bc368853aa03df112fc6/5f32bc368853aa03df112fc6_Images/5f32bc368853aa03df112fc6_Image_8.jpeg,did not like,4.438512181,,,,,,,,,,,,,,
,,,,,,space,1.2333,NAN,,NAN,,0,107,107,107,1,108,Taylor,Acc,Participant_Images/5f32bc368853aa03df112fc6/5f32bc368853aa03df112fc6_Images/5f32bc368853aa03df112fc6_Image_12.jpeg,liked,2.682944783,,,,,,,,,,,,,,
,,,,,,space,1.5716,NAN,,NAN,,0,108,108,108,1,109,Taylor,Acc,Participant_Images/5f32bc368853aa03df112fc6/5f32bc368853aa03df112fc6_Images/5f32bc368853aa03df112fc6_Image_4.jpeg,liked,4.51984296,,,,,,,,,,,,,,
,,,,,,,,,,,,,,,,,,,,,,,c,0,space,1.186,0,0,0,0,1,1.7438,,,,
,,,,,,,,NAN,,NAN,,0,109,109,109,1,110,Taylor,Acc,Participant_Images/5f32bc368853aa03df112fc6/5f32bc368853aa03df112fc6_Images/5f32bc368853aa03df112fc6_Image_30.jpeg,liked,3.195382774,,,,,,,,,,,,,,
,,,,,,space,1.505,NAN,,NAN,,0,110,110,110,1,111,Taylor,Acc,Participant_Images/5f32bc368853aa03df112fc6/5f32bc368853aa03df112fc6_Images/5f32bc368853aa03df112fc6_Image_2.jpeg,liked,1.779333479,,,,,,,,,,,,,,
,,,,,,space,0.6217,NAN,,NAN,,0,111,111,111,1,112,Taylor,Acc,Participant_Images/5f32bc368853aa03df112fc6/5f32bc368853aa03df112fc6_Images/5f32bc368853aa03df112fc6_Image_10.jpeg,liked,4.312468682,,,,,,,,,,,,,,
,,,,,,space,2.5497,NAN,,NAN,,0,112,112,112,1,113,Taylor,Acc,Participant_Images/5f32bc368853aa03df112fc6/5f32bc368853aa03df112fc6_Images/5f32bc368853aa03df112fc6_Image_18.jpeg,did not like,4.940433059,,,,,,,,,,,,,,
,,,,,,space,1.0783,NAN,,NAN,,0,113,113,113,1,114,Taylor,Acc,Participant_Images/5f32bc368853aa03df112fc6/5f32bc368853aa03df112fc6_Images/5f32bc368853aa03df112fc6_Image_17.jpeg,liked,2.7105123,,,,,,,,,,,,,,
,,,,,,,,,,,,,,,,,,,,,,,c,0,space,0.646,0,0,0,0,1,1.5881,,,,
,,,,,,,,NAN,,NAN,,0,114,114,114,1,115,Taylor,Acc,Participant_Images/5f32bc368853aa03df112fc6/5f32bc368853aa03df112fc6_Images/5f32bc368853aa03df112fc6_Image_5.jpeg,liked,3.602308302,,,,,,,,,,,,,,
,,,,,,space,1.6458,NAN,,NAN,,0,115,115,115,1,116,Taylor,Acc,Participant_Images/5f32bc368853aa03df112fc6/5f32bc368853aa03df112fc6_Images/5f32bc368853aa03df112fc6_Image_29.jpeg,liked,4.106391878,,,,,,,,,,,,,,
,,,,,,space,0.6519,NAN,,NAN,,0,116,116,116,1,117,Taylor,Acc,Participant_Images/5f32bc368853aa03df112fc6/5f32bc368853aa03df112fc6_Images/5f32bc368853aa03df112fc6_Image_7.jpeg,did not like,3.799433026,,,,,,,,,,,,,,
,,,,,,space,0.7967,NAN,,NAN,,0,117,117,117,1,118,Taylor,Acc,Participant_Images/5f32bc368853aa03df112fc6/5f32bc368853aa03df112fc6_Images/5f32bc368853aa03df112fc6_Image_19.jpeg,liked,5.246980764,,,,,,,,,,,,,,
,,,,,,space,0.7596,NAN,,NAN,,0,118,118,118,1,119,Taylor,Acc,Participant_Images/5f32bc368853aa03df112fc6/5f32bc368853aa03df112fc6_Images/5f32bc368853aa03df112fc6_Image_3.jpeg,did not like,3.30081769,,,,,,,,,,,,,,
,,,,,,,,,,,,,,,,,,,,,,,s,1,space,2.3841,0,0,0,0,1,1.6129,h,0.9278,,
,,,,,,,,5,,1,,0,119,119,119,1,120,Taylor,Acc,Participant_Images/5f32bc368853aa03df112fc6/5f32bc368853aa03df112fc6_Images/5f32bc368853aa03df112fc6_Image_24.jpeg,liked,1.661473164,,,,,,,,,,,,,,
,,,,space,1.9198,space,1.1736,NAN,,NAN,,0,120,120,120,1,121,Riley,Neutral,Participant_Images/5f32bc368853aa03df112fc6/5f32bc368853aa03df112fc6_Images/5f32bc368853aa03df112fc6_Image_6.jpeg,did not like,3.613205605,,,,,,,,,,,,,,
,,,,,,space,0.6371,NAN,,NAN,,0,121,121,121,1,122,Riley,Neutral,Participant_Images/5f32bc368853aa03df112fc6/5f32bc368853aa03df112fc6_Images/5f32bc368853aa03df112fc6_Image_23.jpeg,did not like,4.988446431,,,,,,,,,,,,,,
,,,,,,space,20.8851,NAN,,NAN,,0,122,122,122,1,123,Riley,Neutral,Participant_Images/5f32bc368853aa03df112fc6/5f32bc368853aa03df112fc6_Images/5f32bc368853aa03df112fc6_Image_22.jpeg,did not like,3.470791822,,,,,,,,,,,,,,
,,,,,,space,0.8554,NAN,,NAN,,0,123,123,123,1,124,Riley,Neutral,Participant_Images/5f32bc368853aa03df112fc6/5f32bc368853aa03df112fc6_Images/5f32bc368853aa03df112fc6_Image_16.jpeg,did not like,3.820572462,,,,,,,,,,,,,,
,,,,,,,,,,,,,,,,,,,,,,,c,0,space,2.6981,0,0,0,0,1,1.4952,,,,
,,,,,,,,NAN,,NAN,,0,124,124,124,1,125,Riley,Neutral,Participant_Images/5f32bc368853aa03df112fc6/5f32bc368853aa03df112fc6_Images/5f32bc368853aa03df112fc6_Image_14.jpeg,did not like,2.455989137,,,,,,,,,,,,,,
,,,,,,space,5.8944,NAN,,NAN,,0,125,125,125,1,126,Riley,Neutral,Participant_Images/5f32bc368853aa03df112fc6/5f32bc368853aa03df112fc6_Images/5f32bc368853aa03df112fc6_Image_15.jpeg,did not like,3.79605092,,,,,,,,,,,,,,
,,,,,,space,0.5722,NAN,,NAN,,0,126,126,126,1,127,Riley,Neutral,Participant_Images/5f32bc368853aa03df112fc6/5f32bc368853aa03df112fc6_Images/5f32bc368853aa03df112fc6_Image_8.jpeg,liked,3.562416326,,,,,,,,,,,,,,
,,,,,,space,7.0888,NAN,,NAN,,0,127,127,127,1,128,Riley,Neutral,Participant_Images/5f32bc368853aa03df112fc6/5f32bc368853aa03df112fc6_Images/5f32bc368853aa03df112fc6_Image_2.jpeg,did not like,2.843822497,,,,,,,,,,,,,,
,,,,,,space,1.2915,NAN,,NAN,,0,128,128,128,1,129,Riley,Neutral,Participant_Images/5f32bc368853aa03df112fc6/5f32bc368853aa03df112fc6_Images/5f32bc368853aa03df112fc6_Image_12.jpeg,did not like,3.546495948,,,,,,,,,,,,,,
,,,,,,,,,,,,,,,,,,,,,,,c,0,space,1.0894,0,0,0,0,1,1.3154,,,,
,,,,,,,,NAN,,NAN,,0,129,129,129,1,130,Riley,Neutral,Participant_Images/5f32bc368853aa03df112fc6/5f32bc368853aa03df112fc6_Images/5f32bc368853aa03df112fc6_Image_30.jpeg,liked,1.672012706,,,,,,,,,,,,,,
,,,,,,space,0.5881,NAN,,NAN,,0,130,130,130,1,131,Riley,Neutral,Participant_Images/5f32bc368853aa03df112fc6/5f32bc368853aa03df112fc6_Images/5f32bc368853aa03df112fc6_Image_18.jpeg,liked,4.942172136,,,,,,,,,,,,,,
,,,,,,space,1.004,NAN,,NAN,,0,131,131,131,1,132,Riley,Neutral,Participant_Images/5f32bc368853aa03df112fc6/5f32bc368853aa03df112fc6_Images/5f32bc368853aa03df112fc6_Image_25.jpeg,liked,2.50187214,,,,,,,,,,,,,,
,,,,,,space,0.9713,NAN,,NAN,,0,132,132,132,1,133,Riley,Neutral,Participant_Images/5f32bc368853aa03df112fc6/5f32bc368853aa03df112fc6_Images/5f32bc368853aa03df112fc6_Image_4.jpeg,liked,2.071164779,,,,,,,,,,,,,,
,,,,,,space,1.7149,NAN,,NAN,,0,133,133,133,1,134,Riley,Neutral,Participant_Images/5f32bc368853aa03df112fc6/5f32bc368853aa03df112fc6_Images/5f32bc368853aa03df112fc6_Image_28.jpeg,did not like,5.336503566,,,,,,,,,,,,,,
,,,,,,,,,,,,,,,,,,,,,,,,999,space,4.1976,0,0,0,0,1,,,,,
,,,,,,,,NAN,,NAN,,0,134,134,134,1,135,Riley,Neutral,Participant_Images/5f32bc368853aa03df112fc6/5f32bc368853aa03df112fc6_Images/5f32bc368853aa03df112fc6_Image_19.jpeg,liked,2.642157193,,,,,,,,,,,,,,
,,,,,,space,1.1202,NAN,,NAN,,0,135,135,135,1,136,Riley,Neutral,Participant_Images/5f32bc368853aa03df112fc6/5f32bc368853aa03df112fc6_Images/5f32bc368853aa03df112fc6_Image_20.jpeg,liked,4.456234322,,,,,,,,,,,,,,
,,,,,,space,1.5402,NAN,,NAN,,0,136,136,136,1,137,Riley,Neutral,Participant_Images/5f32bc368853aa03df112fc6/5f32bc368853aa03df112fc6_Images/5f32bc368853aa03df112fc6_Image_21.jpeg,liked,4.438512181,,,,,,,,,,,,,,
,,,,,,space,3.8129,NAN,,NAN,,0,137,137,137,1,138,Riley,Neutral,Participant_Images/5f32bc368853aa03df112fc6/5f32bc368853aa03df112fc6_Images/5f32bc368853aa03df112fc6_Image_1.jpeg,liked,2.682944783,,,,,,,,,,,,,,
,,,,,,space,1.0163,NAN,,NAN,,0,138,138,138,1,139,Riley,Neutral,Participant_Images/5f32bc368853aa03df112fc6/5f32bc368853aa03df112fc6_Images/5f32bc368853aa03df112fc6_Image_13.jpeg,did not like,4.51984296,,,,,,,,,,,,,,
,,,,,,,,,,,,,,,,,,,,,,,c,0,space,0.7231,0,0,0,0,1,1.5516,,,,
,,,,,,,,NAN,,NAN,,0,139,139,139,1,140,Riley,Neutral,Participant_Images/5f32bc368853aa03df112fc6/5f32bc368853aa03df112fc6_Images/5f32bc368853aa03df112fc6_Image_5.jpeg,liked,3.195382774,,,,,,,,,,,,,,
,,,,,,space,0.5346,NAN,,NAN,,0,140,140,140,1,141,Riley,Neutral,Participant_Images/5f32bc368853aa03df112fc6/5f32bc368853aa03df112fc6_Images/5f32bc368853aa03df112fc6_Image_3.jpeg,liked,1.779333479,,,,,,,,,,,,,,
,,,,,,space,0.6393,NAN,,NAN,,0,141,141,141,1,142,Riley,Neutral,Participant_Images/5f32bc368853aa03df112fc6/5f32bc368853aa03df112fc6_Images/5f32bc368853aa03df112fc6_Image_7.jpeg,did not like,4.312468682,,,,,,,,,,,,,,
,,,,,,space,0.7716,NAN,,NAN,,0,142,142,142,1,143,Riley,Neutral,Participant_Images/5f32bc368853aa03df112fc6/5f32bc368853aa03df112fc6_Images/5f32bc368853aa03df112fc6_Image_9.jpeg,liked,4.940433059,,,,,,,,,,,,,,
,,,,,,space,0.8237,NAN,,NAN,,0,143,143,143,1,144,Riley,Neutral,Participant_Images/5f32bc368853aa03df112fc6/5f32bc368853aa03df112fc6_Images/5f32bc368853aa03df112fc6_Image_11.jpeg,did not like,2.7105123,,,,,,,,,,,,,,
,,,,,,,,,,,,,,,,,,,,,,,c,0,space,0.7821,0,0,0,0,1,1.2803,,,,
,,,,,,,,NAN,,NAN,,0,144,144,144,1,145,Riley,Neutral,Participant_Images/5f32bc368853aa03df112fc6/5f32bc368853aa03df112fc6_Images/5f32bc368853aa03df112fc6_Image_17.jpeg,liked,3.602308302,,,,,,,,,,,,,,
,,,,,,space,0.9843,NAN,,NAN,,0,145,145,145,1,146,Riley,Neutral,Participant_Images/5f32bc368853aa03df112fc6/5f32bc368853aa03df112fc6_Images/5f32bc368853aa03df112fc6_Image_24.jpeg,did not like,4.106391878,,,,,,,,,,,,,,
,,,,,,space,0.6766,NAN,,NAN,,0,146,146,146,1,147,Riley,Neutral,Participant_Images/5f32bc368853aa03df112fc6/5f32bc368853aa03df112fc6_Images/5f32bc368853aa03df112fc6_Image_10.jpeg,did not like,3.799433026,,,,,,,,,,,,,,
,,,,,,space,0.5693,NAN,,NAN,,0,147,147,147,1,148,Riley,Neutral,Participant_Images/5f32bc368853aa03df112fc6/5f32bc368853aa03df112fc6_Images/5f32bc368853aa03df112fc6_Image_29.jpeg,did not like,5.246980764,,,,,,,,,,,,,,
,,,,,,space,1.0358,NAN,,NAN,,0,148,148,148,1,149,Riley,Neutral,Participant_Images/5f32bc368853aa03df112fc6/5f32bc368853aa03df112fc6_Images/5f32bc368853aa03df112fc6_Image_26.jpeg,liked,3.30081769,,,,,,,,,,,,,,
,,,,,,,,,,,,,,,,,,,,,,,c,0,space,0.5626,0,0,0,0,1,1.6318,,,,
,,,,,,,,3,,3,,0,149,149,149,1,150,Riley,Neutral,Participant_Images/5f32bc368853aa03df112fc6/5f32bc368853aa03df112fc6_Images/5f32bc368853aa03df112fc6_Image_27.jpeg,liked,1.661473164,,,,,,,,,,,,,,
,,,,,,,,,,,,,,,,,,,,,,,,,,,,,,,,,,,space,14.0508
