PROLIFIC_ID,endwelcomescreen_keys.keys,endwelcomescreen_keys.rt,endinstructionscreen_keys.keys,endinstructionscreen_keys.rt,endpartnermatch_keys.keys,endpartnermatch_keys.rt,sharenextphoto_key.keys,sharenextphoto_key.rt,salience_rating,key_resp.keys,stress_level,stresslevel_keypress.keys,entiretaskloop.thisRepN,entiretaskloop.thisTrialN,entiretaskloop.thisN,entiretaskloop.thisIndex,entiretaskloop.ran,TrialNumber,Partner,Condition,Photos,Feedback,FeedbackWait,choice_keys.keys,playlottery,choice_keys.rt,resumeafterlottery_keys.keys,resumeafterlottery_keys.rt,lotteryloop.thisRepN,lotteryloop.thisTrialN,lotteryloop.thisN,lotteryloop.thisIndex,lotteryloop.ran,end_screen_keys.keys,end_screen_keys.rt
5f985596be2ea910b23827ed,space,0.6688,,,,,,,,,,,,,,,,,,,,,,,,,,,,,,,,,
,,,,,,,,,,,,,,,,,,,,,,,,,,,,,,,,,,,
,,,space,325.8853,,,,,,,,,,,,,,,,,,,,,,,,,,,,,,,
,,,,,space,26.5854,space,1.0176,NAN,,NAN,,0,0,0,0,1,1,Charlie,Acc,Participant_Images/5f985596be2ea910b23827ed/5f985596be2ea910b23827ed_Images/5f985596be2ea910b23827ed_Image_1.jpeg,liked,3.613205605,,,,,,,,,,,,
,,,,,,,space,0.6671,NAN,,NAN,,0,1,1,1,1,2,Charlie,Acc,Participant_Images/5f985596be2ea910b23827ed/5f985596be2ea910b23827ed_Images/5f985596be2ea910b23827ed_Image_21.jpeg,liked,4.988446431,,,,,,,,,,,,
,,,,,,,space,1.2849,NAN,,NAN,,0,2,2,2,1,3,Charlie,Acc,Participant_Images/5f985596be2ea910b23827ed/5f985596be2ea910b23827ed_Images/5f985596be2ea910b23827ed_Image_26.jpeg,did not like,3.470791822,,,,,,,,,,,,
,,,,,,,space,0.718,NAN,,NAN,,0,3,3,3,1,4,Charlie,Acc,Participant_Images/5f985596be2ea910b23827ed/5f985596be2ea910b23827ed_Images/5f985596be2ea910b23827ed_Image_29.jpeg,liked,3.820572462,,,,,,,,,,,,
,,,,,,,,,,,,,,,,,,,,,,,,c,0,2.1425,space,4.0903,0,0,0,0,1,,
,,,,,,,,,NAN,,NAN,,0,4,4,4,1,5,Charlie,Acc,Participant_Images/5f985596be2ea910b23827ed/5f985596be2ea910b23827ed_Images/5f985596be2ea910b23827ed_Image_9.jpeg,liked,2.455989137,,,,,,,,,,,,
,,,,,,,space,2.2561,NAN,,NAN,,0,5,5,5,1,6,Charlie,Acc,Participant_Images/5f985596be2ea910b23827ed/5f985596be2ea910b23827ed_Images/5f985596be2ea910b23827ed_Image_7.jpeg,liked,3.79605092,,,,,,,,,,,,
,,,,,,,space,4.491,NAN,,NAN,,0,6,6,6,1,7,Charlie,Acc,Participant_Images/5f985596be2ea910b23827ed/5f985596be2ea910b23827ed_Images/5f985596be2ea910b23827ed_Image_14.jpeg,did not like,3.562416326,,,,,,,,,,,,
,,,,,,,space,0.7173,NAN,,NAN,,0,7,7,7,1,8,Charlie,Acc,Participant_Images/5f985596be2ea910b23827ed/5f985596be2ea910b23827ed_Images/5f985596be2ea910b23827ed_Image_15.jpeg,liked,2.843822497,,,,,,,,,,,,
,,,,,,,space,0.6511,NAN,,NAN,,0,8,8,8,1,9,Charlie,Acc,Participant_Images/5f985596be2ea910b23827ed/5f985596be2ea910b23827ed_Images/5f985596be2ea910b23827ed_Image_18.jpeg,liked,3.546495948,,,,,,,,,,,,
,,,,,,,,,,,,,,,,,,,,,,,,c,0,0.6326,space,1.2445,0,0,0,0,1,,
,,,,,,,,,NAN,,NAN,,0,9,9,9,1,10,Charlie,Acc,Participant_Images/5f985596be2ea910b23827ed/5f985596be2ea910b23827ed_Images/5f985596be2ea910b23827ed_Image_25.jpeg,did not like,1.672012706,,,,,,,,,,,,
,,,,,,,space,0.4563,NAN,,NAN,,0,10,10,10,1,11,Charlie,Acc,Participant_Images/5f985596be2ea910b23827ed/5f985596be2ea910b23827ed_Images/5f985596be2ea910b23827ed_Image_3.jpeg,did not like,4.942172136,,,,,,,,,,,,
,,,,,,,space,0.5879,NAN,,NAN,,0,11,11,11,1,12,Charlie,Acc,Participant_Images/5f985596be2ea910b23827ed/5f985596be2ea910b23827ed_Images/5f985596be2ea910b23827ed_Image_16.jpeg,did not like,2.50187214,,,,,,,,,,,,
,,,,,,,space,0.548,NAN,,NAN,,0,12,12,12,1,13,Charlie,Acc,Participant_Images/5f985596be2ea910b23827ed/5f985596be2ea910b23827ed_Images/5f985596be2ea910b23827ed_Image_2.jpeg,liked,2.071164779,,,,,,,,,,,,
,,,,,,,space,0.6672,NAN,,NAN,,0,13,13,13,1,14,Charlie,Acc,Participant_Images/5f985596be2ea910b23827ed/5f985596be2ea910b23827ed_Images/5f985596be2ea910b23827ed_Image_13.jpeg,liked,5.336503566,,,,,,,,,,,,
,,,,,,,,,,,,,,,,,,,,,,,,c,0,0.6003,space,0.7233,0,0,0,0,1,,
,,,,,,,,,NAN,,NAN,,0,14,14,14,1,15,Charlie,Acc,Participant_Images/5f985596be2ea910b23827ed/5f985596be2ea910b23827ed_Images/5f985596be2ea910b23827ed_Image_28.jpeg,liked,2.642157193,,,,,,,,,,,,
,,,,,,,space,0.5841,NAN,,NAN,,0,15,15,15,1,16,Charlie,Acc,Participant_Images/5f985596be2ea910b23827ed/5f985596be2ea910b23827ed_Images/5f985596be2ea910b23827ed_Image_22.jpeg,did not like,4.456234322,,,,,,,,,,,,
,,,,,,,space,0.5506,NAN,,NAN,,0,16,16,16,1,17,Charlie,Acc,Participant_Images/5f985596be2ea910b23827ed/5f985596be2ea910b23827ed_Images/5f985596be2ea910b23827ed_Image_4.jpeg,liked,4.438512181,,,,,,,,,,,,
,,,,,,,space,0.7012,NAN,,NAN,,0,17,17,17,1,18,Charlie,Acc,Participant_Images/5f985596be2ea910b23827ed/5f985596be2ea910b23827ed_Images/5f985596be2ea910b23827ed_Image_30.jpeg,did not like,2.682944783,,,,,,,,,,,,
,,,,,,,space,0.4553,NAN,,NAN,,0,18,18,18,1,19,Charlie,Acc,Participant_Images/5f985596be2ea910b23827ed/5f985596be2ea910b23827ed_Images/5f985596be2ea910b23827ed_Image_12.jpeg,liked,4.51984296,,,,,,,,,,,,
,,,,,,,,,,,,,,,,,,,,,,,,c,0,0.6704,space,2.64,0,0,0,0,1,,
,,,,,,,,,NAN,,NAN,,0,19,19,19,1,20,Charlie,Acc,Participant_Images/5f985596be2ea910b23827ed/5f985596be2ea910b23827ed_Images/5f985596be2ea910b23827ed_Image_20.jpeg,liked,3.195382774,,,,,,,,,,,,
,,,,,,,space,1.4869,NAN,,NAN,,0,20,20,20,1,21,Charlie,Acc,Participant_Images/5f985596be2ea910b23827ed/5f985596be2ea910b23827ed_Images/5f985596be2ea910b23827ed_Image_24.jpeg,liked,1.779333479,,,,,,,,,,,,
,,,,,,,space,0.5668,NAN,,NAN,,0,21,21,21,1,22,Charlie,Acc,Participant_Images/5f985596be2ea910b23827ed/5f985596be2ea910b23827ed_Images/5f985596be2ea910b23827ed_Image_5.jpeg,liked,4.312468682,,,,,,,,,,,,
,,,,,,,space,1.2849,NAN,,NAN,,0,22,22,22,1,23,Charlie,Acc,Participant_Images/5f985596be2ea910b23827ed/5f985596be2ea910b23827ed_Images/5f985596be2ea910b23827ed_Image_23.jpeg,liked,4.940433059,,,,,,,,,,,,
,,,,,,,space,2.6196,NAN,,NAN,,0,23,23,23,1,24,Charlie,Acc,Participant_Images/5f985596be2ea910b23827ed/5f985596be2ea910b23827ed_Images/5f985596be2ea910b23827ed_Image_8.jpeg,liked,2.7105123,,,,,,,,,,,,
,,,,,,,,,,,,,,,,,,,,,,,,,999,,space,3.4173,0,0,0,0,1,,
,,,,,,,,,NAN,,NAN,,0,24,24,24,1,25,Charlie,Acc,Participant_Images/5f985596be2ea910b23827ed/5f985596be2ea910b23827ed_Images/5f985596be2ea910b23827ed_Image_27.jpeg,liked,3.602308302,,,,,,,,,,,,
,,,,,,,space,2.1462,NAN,,NAN,,0,25,25,25,1,26,Charlie,Acc,Participant_Images/5f985596be2ea910b23827ed/5f985596be2ea910b23827ed_Images/5f985596be2ea910b23827ed_Image_11.jpeg,liked,4.106391878,,,,,,,,,,,,
,,,,,,,space,0.8167,NAN,,NAN,,0,26,26,26,1,27,Charlie,Acc,Participant_Images/5f985596be2ea910b23827ed/5f985596be2ea910b23827ed_Images/5f985596be2ea910b23827ed_Image_17.jpeg,did not like,3.799433026,,,,,,,,,,,,
,,,,,,,space,1.0128,NAN,,NAN,,0,27,27,27,1,28,Charlie,Acc,Participant_Images/5f985596be2ea910b23827ed/5f985596be2ea910b23827ed_Images/5f985596be2ea910b23827ed_Image_19.jpeg,liked,5.246980764,,,,,,,,,,,,
,,,,,,,space,0.5172,NAN,,NAN,,0,28,28,28,1,29,Charlie,Acc,Participant_Images/5f985596be2ea910b23827ed/5f985596be2ea910b23827ed_Images/5f985596be2ea910b23827ed_Image_6.jpeg,liked,3.30081769,,,,,,,,,,,,
,,,,,,,,,,,,,,,,,,,,,,,,c,0,0.8515,space,5.0528,0,0,0,0,1,,
,,,,,,,,,3,,6,,0,29,29,29,1,30,Charlie,Acc,Participant_Images/5f985596be2ea910b23827ed/5f985596be2ea910b23827ed_Images/5f985596be2ea910b23827ed_Image_10.jpeg,did not like,1.661473164,,,,,,,,,,,,
,,,,,space,0.6373,space,0.6216,NAN,,NAN,,0,30,30,30,1,31,Riley,Neutral,Participant_Images/5f985596be2ea910b23827ed/5f985596be2ea910b23827ed_Images/5f985596be2ea910b23827ed_Image_19.jpeg,did not like,3.613205605,,,,,,,,,,,,
,,,,,,,space,0.5894,NAN,,NAN,,0,31,31,31,1,32,Riley,Neutral,Participant_Images/5f985596be2ea910b23827ed/5f985596be2ea910b23827ed_Images/5f985596be2ea910b23827ed_Image_22.jpeg,did not like,4.988446431,,,,,,,,,,,,
,,,,,,,space,0.7884,NAN,,NAN,,0,32,32,32,1,33,Riley,Neutral,Participant_Images/5f985596be2ea910b23827ed/5f985596be2ea910b23827ed_Images/5f985596be2ea910b23827ed_Image_3.jpeg,liked,3.470791822,,,,,,,,,,,,
,,,,,,,space,0.5382,NAN,,NAN,,0,33,33,33,1,34,Riley,Neutral,Participant_Images/5f985596be2ea910b23827ed/5f985596be2ea910b23827ed_Images/5f985596be2ea910b23827ed_Image_9.jpeg,did not like,3.820572462,,,,,,,,,,,,
,,,,,,,,,,,,,,,,,,,,,,,,c,0,0.9035,space,1.7405,0,0,0,0,1,,
,,,,,,,,,NAN,,NAN,,0,34,34,34,1,35,Riley,Neutral,Participant_Images/5f985596be2ea910b23827ed/5f985596be2ea910b23827ed_Images/5f985596be2ea910b23827ed_Image_14.jpeg,liked,2.455989137,,,,,,,,,,,,
,,,,,,,space,0.851,NAN,,NAN,,0,35,35,35,1,36,Riley,Neutral,Participant_Images/5f985596be2ea910b23827ed/5f985596be2ea910b23827ed_Images/5f985596be2ea910b23827ed_Image_10.jpeg,liked,3.79605092,,,,,,,,,,,,
,,,,,,,space,0.8717,NAN,,NAN,,0,36,36,36,1,37,Riley,Neutral,Participant_Images/5f985596be2ea910b23827ed/5f985596be2ea910b23827ed_Images/5f985596be2ea910b23827ed_Image_2.jpeg,did not like,3.562416326,,,,,,,,,,,,
,,,,,,,space,0.7847,NAN,,NAN,,0,37,37,37,1,38,Riley,Neutral,Participant_Images/5f985596be2ea910b23827ed/5f985596be2ea910b23827ed_Images/5f985596be2ea910b23827ed_Image_1.jpeg,liked,2.843822497,,,,,,,,,,,,
,,,,,,,space,0.6509,NAN,,NAN,,0,38,38,38,1,39,Riley,Neutral,Participant_Images/5f985596be2ea910b23827ed/5f985596be2ea910b23827ed_Images/5f985596be2ea910b23827ed_Image_13.jpeg,liked,3.546495948,,,,,,,,,,,,
,,,,,,,,,,,,,,,,,,,,,,,,c,0,0.9343,space,0.5675,0,0,0,0,1,,
,,,,,,,,,NAN,,NAN,,0,39,39,39,1,40,Riley,Neutral,Participant_Images/5f985596be2ea910b23827ed/5f985596be2ea910b23827ed_Images/5f985596be2ea910b23827ed_Image_20.jpeg,liked,1.672012706,,,,,,,,,,,,
,,,,,,,space,0.7844,NAN,,NAN,,0,40,40,40,1,41,Riley,Neutral,Participant_Images/5f985596be2ea910b23827ed/5f985596be2ea910b23827ed_Images/5f985596be2ea910b23827ed_Image_23.jpeg,did not like,4.942172136,,,,,,,,,,,,
,,,,,,,space,1.1657,NAN,,NAN,,0,41,41,41,1,42,Riley,Neutral,Participant_Images/5f985596be2ea910b23827ed/5f985596be2ea910b23827ed_Images/5f985596be2ea910b23827ed_Image_7.jpeg,liked,2.50187214,,,,,,,,,,,,
,,,,,,,space,0.7023,NAN,,NAN,,0,42,42,42,1,43,Riley,Neutral,Participant_Images/5f985596be2ea910b23827ed/5f985596be2ea910b23827ed_Images/5f985596be2ea910b23827ed_Image_4.jpeg,did not like,2.071164779,,,,,,,,,,,,
,,,,,,,space,0.7846,NAN,,NAN,,0,43,43,43,1,44,Riley,Neutral,Participant_Images/5f985596be2ea910b23827ed/5f985596be2ea910b23827ed_Images/5f985596be2ea910b23827ed_Image_26.jpeg,did not like,5.336503566,,,,,,,,,,,,
,,,,,,,,,,,,,,,,,,,,,,,,c,0,0.6341,space,0.5674,0,0,0,0,1,,
,,,,,,,,,NAN,,NAN,,0,44,44,44,1,45,Riley,Neutral,Participant_Images/5f985596be2ea910b23827ed/5f985596be2ea910b23827ed_Images/5f985596be2ea910b23827ed_Image_8.jpeg,liked,2.642157193,,,,,,,,,,,,
,,,,,,,space,1.1365,NAN,,NAN,,0,45,45,45,1,46,Riley,Neutral,Participant_Images/5f985596be2ea910b23827ed/5f985596be2ea910b23827ed_Images/5f985596be2ea910b23827ed_Image_15.jpeg,did not like,4.456234322,,,,,,,,,,,,
,,,,,,,space,0.6333,NAN,,NAN,,0,46,46,46,1,47,Riley,Neutral,Participant_Images/5f985596be2ea910b23827ed/5f985596be2ea910b23827ed_Images/5f985596be2ea910b23827ed_Image_17.jpeg,liked,4.438512181,,,,,,,,,,,,
,,,,,,,space,0.8177,NAN,,NAN,,0,47,47,47,1,48,Riley,Neutral,Participant_Images/5f985596be2ea910b23827ed/5f985596be2ea910b23827ed_Images/5f985596be2ea910b23827ed_Image_27.jpeg,liked,2.682944783,,,,,,,,,,,,
,,,,,,,space,0.7893,NAN,,NAN,,0,48,48,48,1,49,Riley,Neutral,Participant_Images/5f985596be2ea910b23827ed/5f985596be2ea910b23827ed_Images/5f985596be2ea910b23827ed_Image_21.jpeg,did not like,4.51984296,,,,,,,,,,,,
,,,,,,,,,,,,,,,,,,,,,,,,c,0,0.8187,space,0.7381,0,0,0,0,1,,
,,,,,,,,,NAN,,NAN,,0,49,49,49,1,50,Riley,Neutral,Participant_Images/5f985596be2ea910b23827ed/5f985596be2ea910b23827ed_Images/5f985596be2ea910b23827ed_Image_28.jpeg,did not like,3.195382774,,,,,,,,,,,,
,,,,,,,space,1.1849,NAN,,NAN,,0,50,50,50,1,51,Riley,Neutral,Participant_Images/5f985596be2ea910b23827ed/5f985596be2ea910b23827ed_Images/5f985596be2ea910b23827ed_Image_11.jpeg,liked,1.779333479,,,,,,,,,,,,
,,,,,,,space,1.0057,NAN,,NAN,,0,51,51,51,1,52,Riley,Neutral,Participant_Images/5f985596be2ea910b23827ed/5f985596be2ea910b23827ed_Images/5f985596be2ea910b23827ed_Image_29.jpeg,liked,4.312468682,,,,,,,,,,,,
,,,,,,,space,0.8342,NAN,,NAN,,0,52,52,52,1,53,Riley,Neutral,Participant_Images/5f985596be2ea910b23827ed/5f985596be2ea910b23827ed_Images/5f985596be2ea910b23827ed_Image_30.jpeg,liked,4.940433059,,,,,,,,,,,,
,,,,,,,space,0.5881,NAN,,NAN,,0,53,53,53,1,54,Riley,Neutral,Participant_Images/5f985596be2ea910b23827ed/5f985596be2ea910b23827ed_Images/5f985596be2ea910b23827ed_Image_12.jpeg,liked,2.7105123,,,,,,,,,,,,
,,,,,,,,,,,,,,,,,,,,,,,,c,0,0.7168,space,0.5689,0,0,0,0,1,,
,,,,,,,,,NAN,,NAN,,0,54,54,54,1,55,Riley,Neutral,Participant_Images/5f985596be2ea910b23827ed/5f985596be2ea910b23827ed_Images/5f985596be2ea910b23827ed_Image_24.jpeg,did not like,3.602308302,,,,,,,,,,,,
,,,,,,,space,1.5824,NAN,,NAN,,0,55,55,55,1,56,Riley,Neutral,Participant_Images/5f985596be2ea910b23827ed/5f985596be2ea910b23827ed_Images/5f985596be2ea910b23827ed_Image_6.jpeg,did not like,4.106391878,,,,,,,,,,,,
,,,,,,,space,0.8235,NAN,,NAN,,0,56,56,56,1,57,Riley,Neutral,Participant_Images/5f985596be2ea910b23827ed/5f985596be2ea910b23827ed_Images/5f985596be2ea910b23827ed_Image_16.jpeg,did not like,3.799433026,,,,,,,,,,,,
,,,,,,,space,0.6485,NAN,,NAN,,0,57,57,57,1,58,Riley,Neutral,Participant_Images/5f985596be2ea910b23827ed/5f985596be2ea910b23827ed_Images/5f985596be2ea910b23827ed_Image_25.jpeg,did not like,5.246980764,,,,,,,,,,,,
,,,,,,,space,0.7176,NAN,,NAN,,0,58,58,58,1,59,Riley,Neutral,Participant_Images/5f985596be2ea910b23827ed/5f985596be2ea910b23827ed_Images/5f985596be2ea910b23827ed_Image_18.jpeg,liked,3.30081769,,,,,,,,,,,,
,,,,,,,,,,,,,,,,,,,,,,,,c,0,0.8378,space,0.8269,0,0,0,0,1,,
,,,,,,,,,2,,4,,0,59,59,59,1,60,Riley,Neutral,Participant_Images/5f985596be2ea910b23827ed/5f985596be2ea910b23827ed_Images/5f985596be2ea910b23827ed_Image_5.jpeg,did not like,1.661473164,,,,,,,,,,,,
,,,,,space,0.9351,space,0.6674,NAN,,NAN,,0,60,60,60,1,61,Taylor,Acc,Participant_Images/5f985596be2ea910b23827ed/5f985596be2ea910b23827ed_Images/5f985596be2ea910b23827ed_Image_9.jpeg,liked,3.613205605,,,,,,,,,,,,
,,,,,,,space,1.386,NAN,,NAN,,0,61,61,61,1,62,Taylor,Acc,Participant_Images/5f985596be2ea910b23827ed/5f985596be2ea910b23827ed_Images/5f985596be2ea910b23827ed_Image_4.jpeg,liked,4.988446431,,,,,,,,,,,,
,,,,,,,space,0.9342,NAN,,NAN,,0,62,62,62,1,63,Taylor,Acc,Participant_Images/5f985596be2ea910b23827ed/5f985596be2ea910b23827ed_Images/5f985596be2ea910b23827ed_Image_26.jpeg,did not like,3.470791822,,,,,,,,,,,,
,,,,,,,space,0.9632,NAN,,NAN,,0,63,63,63,1,64,Taylor,Acc,Participant_Images/5f985596be2ea910b23827ed/5f985596be2ea910b23827ed_Images/5f985596be2ea910b23827ed_Image_11.jpeg,liked,3.820572462,,,,,,,,,,,,
,,,,,,,,,,,,,,,,,,,,,,,,c,0,0.766,space,0.788,0,0,0,0,1,,
,,,,,,,,,NAN,,NAN,,0,64,64,64,1,65,Taylor,Acc,Participant_Images/5f985596be2ea910b23827ed/5f985596be2ea910b23827ed_Images/5f985596be2ea910b23827ed_Image_2.jpeg,liked,2.455989137,,,,,,,,,,,,
,,,,,,,space,0.5504,NAN,,NAN,,0,65,65,65,1,66,Taylor,Acc,Participant_Images/5f985596be2ea910b23827ed/5f985596be2ea910b23827ed_Images/5f985596be2ea910b23827ed_Image_15.jpeg,liked,3.79605092,,,,,,,,,,,,
,,,,,,,space,1.8372,NAN,,NAN,,0,66,66,66,1,67,Taylor,Acc,Participant_Images/5f985596be2ea910b23827ed/5f985596be2ea910b23827ed_Images/5f985596be2ea910b23827ed_Image_28.jpeg,liked,3.562416326,,,,,,,,,,,,
,,,,,,,space,1.068,NAN,,NAN,,0,67,67,67,1,68,Taylor,Acc,Participant_Images/5f985596be2ea910b23827ed/5f985596be2ea910b23827ed_Images/5f985596be2ea910b23827ed_Image_12.jpeg,liked,2.843822497,,,,,,,,,,,,
,,,,,,,space,0.7192,NAN,,NAN,,0,68,68,68,1,69,Taylor,Acc,Participant_Images/5f985596be2ea910b23827ed/5f985596be2ea910b23827ed_Images/5f985596be2ea910b23827ed_Image_1.jpeg,liked,3.546495948,,,,,,,,,,,,
,,,,,,,,,,,,,,,,,,,,,,,,c,0,0.8159,space,0.7275,0,0,0,0,1,,
,,,,,,,,,NAN,,NAN,,0,69,69,69,1,70,Taylor,Acc,Participant_Images/5f985596be2ea910b23827ed/5f985596be2ea910b23827ed_Images/5f985596be2ea910b23827ed_Image_25.jpeg,did not like,1.672012706,,,,,,,,,,,,
,,,,,,,space,1.585,NAN,,NAN,,0,70,70,70,1,71,Taylor,Acc,Participant_Images/5f985596be2ea910b23827ed/5f985596be2ea910b23827ed_Images/5f985596be2ea910b23827ed_Image_30.jpeg,did not like,4.942172136,,,,,,,,,,,,
,,,,,,,space,0.9676,NAN,,NAN,,0,71,71,71,1,72,Taylor,Acc,Participant_Images/5f985596be2ea910b23827ed/5f985596be2ea910b23827ed_Images/5f985596be2ea910b23827ed_Image_21.jpeg,liked,2.50187214,,,,,,,,,,,,
,,,,,,,space,0.7345,NAN,,NAN,,0,72,72,72,1,73,Taylor,Acc,Participant_Images/5f985596be2ea910b23827ed/5f985596be2ea910b23827ed_Images/5f985596be2ea910b23827ed_Image_29.jpeg,did not like,2.071164779,,,,,,,,,,,,
,,,,,,,space,0.761,NAN,,NAN,,0,73,73,73,1,74,Taylor,Acc,Participant_Images/5f985596be2ea910b23827ed/5f985596be2ea910b23827ed_Images/5f985596be2ea910b23827ed_Image_8.jpeg,liked,5.336503566,,,,,,,,,,,,
,,,,,,,,,,,,,,,,,,,,,,,,c,0,3.9195,space,1.7725,0,0,0,0,1,,
,,,,,,,,,NAN,,NAN,,0,74,74,74,1,75,Taylor,Acc,Participant_Images/5f985596be2ea910b23827ed/5f985596be2ea910b23827ed_Images/5f985596be2ea910b23827ed_Image_23.jpeg,liked,2.642157193,,,,,,,,,,,,
,,,,,,,space,0.596,NAN,,NAN,,0,75,75,75,1,76,Taylor,Acc,Participant_Images/5f985596be2ea910b23827ed/5f985596be2ea910b23827ed_Images/5f985596be2ea910b23827ed_Image_10.jpeg,liked,4.456234322,,,,,,,,,,,,
,,,,,,,space,1.6023,NAN,,NAN,,0,76,76,76,1,77,Taylor,Acc,Participant_Images/5f985596be2ea910b23827ed/5f985596be2ea910b23827ed_Images/5f985596be2ea910b23827ed_Image_17.jpeg,liked,4.438512181,,,,,,,,,,,,
,,,,,,,space,4.4104,NAN,,NAN,,0,77,77,77,1,78,Taylor,Acc,Participant_Images/5f985596be2ea910b23827ed/5f985596be2ea910b23827ed_Images/5f985596be2ea910b23827ed_Image_3.jpeg,liked,2.682944783,,,,,,,,,,,,
,,,,,,,space,0.7511,NAN,,NAN,,0,78,78,78,1,79,Taylor,Acc,Participant_Images/5f985596be2ea910b23827ed/5f985596be2ea910b23827ed_Images/5f985596be2ea910b23827ed_Image_20.jpeg,liked,4.51984296,,,,,,,,,,,,
,,,,,,,,,,,,,,,,,,,,,,,,c,0,0.7843,space,1.1681,0,0,0,0,1,,
,,,,,,,,,NAN,,NAN,,0,79,79,79,1,80,Taylor,Acc,Participant_Images/5f985596be2ea910b23827ed/5f985596be2ea910b23827ed_Images/5f985596be2ea910b23827ed_Image_7.jpeg,did not like,3.195382774,,,,,,,,,,,,
,,,,,,,space,0.7011,NAN,,NAN,,0,80,80,80,1,81,Taylor,Acc,Participant_Images/5f985596be2ea910b23827ed/5f985596be2ea910b23827ed_Images/5f985596be2ea910b23827ed_Image_16.jpeg,liked,1.779333479,,,,,,,,,,,,
,,,,,,,space,0.7009,NAN,,NAN,,0,81,81,81,1,82,Taylor,Acc,Participant_Images/5f985596be2ea910b23827ed/5f985596be2ea910b23827ed_Images/5f985596be2ea910b23827ed_Image_19.jpeg,liked,4.312468682,,,,,,,,,,,,
,,,,,,,space,2.6692,NAN,,NAN,,0,82,82,82,1,83,Taylor,Acc,Participant_Images/5f985596be2ea910b23827ed/5f985596be2ea910b23827ed_Images/5f985596be2ea910b23827ed_Image_14.jpeg,liked,4.940433059,,,,,,,,,,,,
,,,,,,,space,0.6332,NAN,,NAN,,0,83,83,83,1,84,Taylor,Acc,Participant_Images/5f985596be2ea910b23827ed/5f985596be2ea910b23827ed_Images/5f985596be2ea910b23827ed_Image_6.jpeg,did not like,2.7105123,,,,,,,,,,,,
,,,,,,,,,,,,,,,,,,,,,,,,c,0,1.4258,space,1.4701,0,0,0,0,1,,
,,,,,,,,,NAN,,NAN,,0,84,84,84,1,85,Taylor,Acc,Participant_Images/5f985596be2ea910b23827ed/5f985596be2ea910b23827ed_Images/5f985596be2ea910b23827ed_Image_18.jpeg,liked,3.602308302,,,,,,,,,,,,
,,,,,,,space,1.2687,NAN,,NAN,,0,85,85,85,1,86,Taylor,Acc,Participant_Images/5f985596be2ea910b23827ed/5f985596be2ea910b23827ed_Images/5f985596be2ea910b23827ed_Image_5.jpeg,did not like,4.106391878,,,,,,,,,,,,
,,,,,,,space,0.9891,NAN,,NAN,,0,86,86,86,1,87,Taylor,Acc,Participant_Images/5f985596be2ea910b23827ed/5f985596be2ea910b23827ed_Images/5f985596be2ea910b23827ed_Image_22.jpeg,liked,3.799433026,,,,,,,,,,,,
,,,,,,,space,0.7177,NAN,,NAN,,0,87,87,87,1,88,Taylor,Acc,Participant_Images/5f985596be2ea910b23827ed/5f985596be2ea910b23827ed_Images/5f985596be2ea910b23827ed_Image_13.jpeg,did not like,5.246980764,,,,,,,,,,,,
,,,,,,,space,0.7389,NAN,,NAN,,0,88,88,88,1,89,Taylor,Acc,Participant_Images/5f985596be2ea910b23827ed/5f985596be2ea910b23827ed_Images/5f985596be2ea910b23827ed_Image_24.jpeg,did not like,3.30081769,,,,,,,,,,,,
,,,,,,,,,,,,,,,,,,,,,,,,c,0,0.9015,space,0.7064,0,0,0,0,1,,
,,,,,,,,,3,,5,,0,89,89,89,1,90,Taylor,Acc,Participant_Images/5f985596be2ea910b23827ed/5f985596be2ea910b23827ed_Images/5f985596be2ea910b23827ed_Image_27.jpeg,liked,1.661473164,,,,,,,,,,,,
,,,,,space,0.9722,space,2.0528,NAN,,NAN,,0,90,90,90,1,91,Alex,Rej,Participant_Images/5f985596be2ea910b23827ed/5f985596be2ea910b23827ed_Images/5f985596be2ea910b23827ed_Image_1.jpeg,did not like,3.613205605,,,,,,,,,,,,
,,,,,,,space,0.8519,NAN,,NAN,,0,91,91,91,1,92,Alex,Rej,Participant_Images/5f985596be2ea910b23827ed/5f985596be2ea910b23827ed_Images/5f985596be2ea910b23827ed_Image_29.jpeg,liked,4.988446431,,,,,,,,,,,,
,,,,,,,space,0.851,NAN,,NAN,,0,92,92,92,1,93,Alex,Rej,Participant_Images/5f985596be2ea910b23827ed/5f985596be2ea910b23827ed_Images/5f985596be2ea910b23827ed_Image_8.jpeg,did not like,3.470791822,,,,,,,,,,,,
,,,,,,,space,1.3397,NAN,,NAN,,0,93,93,93,1,94,Alex,Rej,Participant_Images/5f985596be2ea910b23827ed/5f985596be2ea910b23827ed_Images/5f985596be2ea910b23827ed_Image_22.jpeg,did not like,3.820572462,,,,,,,,,,,,
,,,,,,,,,,,,,,,,,,,,,,,,,999,,space,0.8312,0,0,0,0,1,,
,,,,,,,,,NAN,,NAN,,0,94,94,94,1,95,Alex,Rej,Participant_Images/5f985596be2ea910b23827ed/5f985596be2ea910b23827ed_Images/5f985596be2ea910b23827ed_Image_28.jpeg,liked,2.455989137,,,,,,,,,,,,
,,,,,,,space,1.1159,NAN,,NAN,,0,95,95,95,1,96,Alex,Rej,Participant_Images/5f985596be2ea910b23827ed/5f985596be2ea910b23827ed_Images/5f985596be2ea910b23827ed_Image_23.jpeg,liked,3.79605092,,,,,,,,,,,,
,,,,,,,space,0.968,NAN,,NAN,,0,96,96,96,1,97,Alex,Rej,Participant_Images/5f985596be2ea910b23827ed/5f985596be2ea910b23827ed_Images/5f985596be2ea910b23827ed_Image_11.jpeg,liked,3.562416326,,,,,,,,,,,,
,,,,,,,space,0.9089,NAN,,NAN,,0,97,97,97,1,98,Alex,Rej,Participant_Images/5f985596be2ea910b23827ed/5f985596be2ea910b23827ed_Images/5f985596be2ea910b23827ed_Image_18.jpeg,did not like,2.843822497,,,,,,,,,,,,
,,,,,,,space,0.6216,NAN,,NAN,,0,98,98,98,1,99,Alex,Rej,Participant_Images/5f985596be2ea910b23827ed/5f985596be2ea910b23827ed_Images/5f985596be2ea910b23827ed_Image_10.jpeg,did not like,3.546495948,,,,,,,,,,,,
,,,,,,,,,,,,,,,,,,,,,,,,c,0,1.2849,space,0.8726,0,0,0,0,1,,
,,,,,,,,,NAN,,NAN,,0,99,99,99,1,100,Alex,Rej,Participant_Images/5f985596be2ea910b23827ed/5f985596be2ea910b23827ed_Images/5f985596be2ea910b23827ed_Image_26.jpeg,did not like,1.672012706,,,,,,,,,,,,
,,,,,,,space,0.7339,NAN,,NAN,,0,100,100,100,1,101,Alex,Rej,Participant_Images/5f985596be2ea910b23827ed/5f985596be2ea910b23827ed_Images/5f985596be2ea910b23827ed_Image_30.jpeg,did not like,4.942172136,,,,,,,,,,,,
,,,,,,,space,0.7174,NAN,,NAN,,0,101,101,101,1,102,Alex,Rej,Participant_Images/5f985596be2ea910b23827ed/5f985596be2ea910b23827ed_Images/5f985596be2ea910b23827ed_Image_20.jpeg,did not like,2.50187214,,,,,,,,,,,,
,,,,,,,space,0.9298,NAN,,NAN,,0,102,102,102,1,103,Alex,Rej,Participant_Images/5f985596be2ea910b23827ed/5f985596be2ea910b23827ed_Images/5f985596be2ea910b23827ed_Image_7.jpeg,liked,2.071164779,,,,,,,,,,,,
,,,,,,,space,0.8674,NAN,,NAN,,0,103,103,103,1,104,Alex,Rej,Participant_Images/5f985596be2ea910b23827ed/5f985596be2ea910b23827ed_Images/5f985596be2ea910b23827ed_Image_2.jpeg,did not like,5.336503566,,,,,,,,,,,,
,,,,,,,,,,,,,,,,,,,,,,,,c,0,2.2016,space,1.1281,0,0,0,0,1,,
,,,,,,,,,NAN,,NAN,,0,104,104,104,1,105,Alex,Rej,Participant_Images/5f985596be2ea910b23827ed/5f985596be2ea910b23827ed_Images/5f985596be2ea910b23827ed_Image_17.jpeg,did not like,2.642157193,,,,,,,,,,,,
,,,,,,,space,0.6845,NAN,,NAN,,0,105,105,105,1,106,Alex,Rej,Participant_Images/5f985596be2ea910b23827ed/5f985596be2ea910b23827ed_Images/5f985596be2ea910b23827ed_Image_14.jpeg,did not like,4.456234322,,,,,,,,,,,,
,,,,,,,space,0.9177,NAN,,NAN,,0,106,106,106,1,107,Alex,Rej,Participant_Images/5f985596be2ea910b23827ed/5f985596be2ea910b23827ed_Images/5f985596be2ea910b23827ed_Image_15.jpeg,liked,4.438512181,,,,,,,,,,,,
,,,,,,,space,1.0012,NAN,,NAN,,0,107,107,107,1,108,Alex,Rej,Participant_Images/5f985596be2ea910b23827ed/5f985596be2ea910b23827ed_Images/5f985596be2ea910b23827ed_Image_16.jpeg,did not like,2.682944783,,,,,,,,,,,,
,,,,,,,space,3.9247,NAN,,NAN,,0,108,108,108,1,109,Alex,Rej,Participant_Images/5f985596be2ea910b23827ed/5f985596be2ea910b23827ed_Images/5f985596be2ea910b23827ed_Image_13.jpeg,liked,4.51984296,,,,,,,,,,,,
,,,,,,,,,,,,,,,,,,,,,,,,c,0,2.6859,space,1.6351,0,0,0,0,1,,
,,,,,,,,,NAN,,NAN,,0,109,109,109,1,110,Alex,Rej,Participant_Images/5f985596be2ea910b23827ed/5f985596be2ea910b23827ed_Images/5f985596be2ea910b23827ed_Image_9.jpeg,did not like,3.195382774,,,,,,,,,,,,
,,,,,,,space,0.6178,NAN,,NAN,,0,110,110,110,1,111,Alex,Rej,Participant_Images/5f985596be2ea910b23827ed/5f985596be2ea910b23827ed_Images/5f985596be2ea910b23827ed_Image_6.jpeg,liked,1.779333479,,,,,,,,,,,,
,,,,,,,space,1.0349,NAN,,NAN,,0,111,111,111,1,112,Alex,Rej,Participant_Images/5f985596be2ea910b23827ed/5f985596be2ea910b23827ed_Images/5f985596be2ea910b23827ed_Image_27.jpeg,did not like,4.312468682,,,,,,,,,,,,
,,,,,,,space,1.5031,NAN,,NAN,,0,112,112,112,1,113,Alex,Rej,Participant_Images/5f985596be2ea910b23827ed/5f985596be2ea910b23827ed_Images/5f985596be2ea910b23827ed_Image_12.jpeg,did not like,4.940433059,,,,,,,,,,,,
,,,,,,,space,0.8232,NAN,,NAN,,0,113,113,113,1,114,Alex,Rej,Participant_Images/5f985596be2ea910b23827ed/5f985596be2ea910b23827ed_Images/5f985596be2ea910b23827ed_Image_5.jpeg,did not like,2.7105123,,,,,,,,,,,,
,,,,,,,,,,,,,,,,,,,,,,,,c,0,0.6662,space,1.3561,0,0,0,0,1,,
,,,,,,,,,NAN,,NAN,,0,114,114,114,1,115,Alex,Rej,Participant_Images/5f985596be2ea910b23827ed/5f985596be2ea910b23827ed_Images/5f985596be2ea910b23827ed_Image_4.jpeg,did not like,3.602308302,,,,,,,,,,,,
,,,,,,,space,0.5859,NAN,,NAN,,0,115,115,115,1,116,Alex,Rej,Participant_Images/5f985596be2ea910b23827ed/5f985596be2ea910b23827ed_Images/5f985596be2ea910b23827ed_Image_24.jpeg,did not like,4.106391878,,,,,,,,,,,,
,,,,,,,space,2.3872,NAN,,NAN,,0,116,116,116,1,117,Alex,Rej,Participant_Images/5f985596be2ea910b23827ed/5f985596be2ea910b23827ed_Images/5f985596be2ea910b23827ed_Image_25.jpeg,liked,3.799433026,,,,,,,,,,,,
,,,,,,,space,0.6842,NAN,,NAN,,0,117,117,117,1,118,Alex,Rej,Participant_Images/5f985596be2ea910b23827ed/5f985596be2ea910b23827ed_Images/5f985596be2ea910b23827ed_Image_21.jpeg,did not like,5.246980764,,,,,,,,,,,,
,,,,,,,space,0.0004,NAN,,NAN,,0,118,118,118,1,119,Alex,Rej,Participant_Images/5f985596be2ea910b23827ed/5f985596be2ea910b23827ed_Images/5f985596be2ea910b23827ed_Image_3.jpeg,did not like,3.30081769,,,,,,,,,,,,
,,,,,,,,,,,,,,,,,,,,,,,,c,0,1.0543,space,0.6356,0,0,0,0,1,,
,,,,,,,,,3,,5,,0,119,119,119,1,120,Alex,Rej,Participant_Images/5f985596be2ea910b23827ed/5f985596be2ea910b23827ed_Images/5f985596be2ea910b23827ed_Image_19.jpeg,did not like,1.661473164,,,,,,,,,,,,
,,,,,space,0.6525,space,0.5824,NAN,,NAN,,0,120,120,120,1,121,Sam,Rej,Participant_Images/5f985596be2ea910b23827ed/5f985596be2ea910b23827ed_Images/5f985596be2ea910b23827ed_Image_17.jpeg,did not like,3.613205605,,,,,,,,,,,,
,,,,,,,space,0.2666,NAN,,NAN,,0,121,121,121,1,122,Sam,Rej,Participant_Images/5f985596be2ea910b23827ed/5f985596be2ea910b23827ed_Images/5f985596be2ea910b23827ed_Image_18.jpeg,did not like,4.988446431,,,,,,,,,,,,
,,,,,,,space,1.9195,NAN,,NAN,,0,122,122,122,1,123,Sam,Rej,Participant_Images/5f985596be2ea910b23827ed/5f985596be2ea910b23827ed_Images/5f985596be2ea910b23827ed_Image_14.jpeg,did not like,3.470791822,,,,,,,,,,,,
,,,,,,,space,6.3602,NAN,,NAN,,0,123,123,123,1,124,Sam,Rej,Participant_Images/5f985596be2ea910b23827ed/5f985596be2ea910b23827ed_Images/5f985596be2ea910b23827ed_Image_19.jpeg,did not like,3.820572462,,,,,,,,,,,,
,,,,,,,,,,,,,,,,,,,,,,,,c,0,1.1496,space,0.3209,0,0,0,0,1,,
,,,,,,,,,NAN,,NAN,,0,124,124,124,1,125,Sam,Rej,Participant_Images/5f985596be2ea910b23827ed/5f985596be2ea910b23827ed_Images/5f985596be2ea910b23827ed_Image_30.jpeg,did not like,2.455989137,,,,,,,,,,,,
,,,,,,,space,0.6168,NAN,,NAN,,0,125,125,125,1,126,Sam,Rej,Participant_Images/5f985596be2ea910b23827ed/5f985596be2ea910b23827ed_Images/5f985596be2ea910b23827ed_Image_20.jpeg,liked,3.79605092,,,,,,,,,,,,
,,,,,,,space,0.7693,NAN,,NAN,,0,126,126,126,1,127,Sam,Rej,Participant_Images/5f985596be2ea910b23827ed/5f985596be2ea910b23827ed_Images/5f985596be2ea910b23827ed_Image_6.jpeg,did not like,3.562416326,,,,,,,,,,,,
,,,,,,,space,1.7515,NAN,,NAN,,0,127,127,127,1,128,Sam,Rej,Participant_Images/5f985596be2ea910b23827ed/5f985596be2ea910b23827ed_Images/5f985596be2ea910b23827ed_Image_9.jpeg,liked,2.843822497,,,,,,,,,,,,
,,,,,,,space,0.6507,NAN,,NAN,,0,128,128,128,1,129,Sam,Rej,Participant_Images/5f985596be2ea910b23827ed/5f985596be2ea910b23827ed_Images/5f985596be2ea910b23827ed_Image_13.jpeg,liked,3.546495948,,,,,,,,,,,,
,,,,,,,,,,,,,,,,,,,,,,,,c,0,1.3664,space,1.0719,0,0,0,0,1,,
,,,,,,,,,NAN,,NAN,,0,129,129,129,1,130,Sam,Rej,Participant_Images/5f985596be2ea910b23827ed/5f985596be2ea910b23827ed_Images/5f985596be2ea910b23827ed_Image_4.jpeg,did not like,1.672012706,,,,,,,,,,,,
,,,,,,,space,1.5179,NAN,,NAN,,0,130,130,130,1,131,Sam,Rej,Participant_Images/5f985596be2ea910b23827ed/5f985596be2ea910b23827ed_Images/5f985596be2ea910b23827ed_Image_12.jpeg,did not like,4.942172136,,,,,,,,,,,,
,,,,,,,space,1.0801,NAN,,NAN,,0,131,131,131,1,132,Sam,Rej,Participant_Images/5f985596be2ea910b23827ed/5f985596be2ea910b23827ed_Images/5f985596be2ea910b23827ed_Image_5.jpeg,did not like,2.50187214,,,,,,,,,,,,
,,,,,,,space,1.7969,NAN,,NAN,,0,132,132,132,1,133,Sam,Rej,Participant_Images/5f985596be2ea910b23827ed/5f985596be2ea910b23827ed_Images/5f985596be2ea910b23827ed_Image_26.jpeg,did not like,2.071164779,,,,,,,,,,,,
,,,,,,,space,2.5461,NAN,,NAN,,0,133,133,133,1,134,Sam,Rej,Participant_Images/5f985596be2ea910b23827ed/5f985596be2ea910b23827ed_Images/5f985596be2ea910b23827ed_Image_24.jpeg,did not like,5.336503566,,,,,,,,,,,,
,,,,,,,,,,,,,,,,,,,,,,,,c,0,1.1848,space,1.2989,0,0,0,0,1,,
,,,,,,,,,NAN,,NAN,,0,134,134,134,1,135,Sam,Rej,Participant_Images/5f985596be2ea910b23827ed/5f985596be2ea910b23827ed_Images/5f985596be2ea910b23827ed_Image_16.jpeg,liked,2.642157193,,,,,,,,,,,,
,,,,,,,space,5.6892,NAN,,NAN,,0,135,135,135,1,136,Sam,Rej,Participant_Images/5f985596be2ea910b23827ed/5f985596be2ea910b23827ed_Images/5f985596be2ea910b23827ed_Image_22.jpeg,liked,4.456234322,,,,,,,,,,,,
,,,,,,,space,0.7733,NAN,,NAN,,0,136,136,136,1,137,Sam,Rej,Participant_Images/5f985596be2ea910b23827ed/5f985596be2ea910b23827ed_Images/5f985596be2ea910b23827ed_Image_29.jpeg,did not like,4.438512181,,,,,,,,,,,,
,,,,,,,space,0.017,NAN,,NAN,,0,137,137,137,1,138,Sam,Rej,Participant_Images/5f985596be2ea910b23827ed/5f985596be2ea910b23827ed_Images/5f985596be2ea910b23827ed_Image_2.jpeg,did not like,2.682944783,,,,,,,,,,,,
,,,,,,,space,0.7218,NAN,,NAN,,0,138,138,138,1,139,Sam,Rej,Participant_Images/5f985596be2ea910b23827ed/5f985596be2ea910b23827ed_Images/5f985596be2ea910b23827ed_Image_10.jpeg,did not like,4.51984296,,,,,,,,,,,,
,,,,,,,,,,,,,,,,,,,,,,,,c,0,0.566,space,0.8053,0,0,0,0,1,,
,,,,,,,,,NAN,,NAN,,0,139,139,139,1,140,Sam,Rej,Participant_Images/5f985596be2ea910b23827ed/5f985596be2ea910b23827ed_Images/5f985596be2ea910b23827ed_Image_11.jpeg,did not like,3.195382774,,,,,,,,,,,,
,,,,,,,space,1.1395,NAN,,NAN,,0,140,140,140,1,141,Sam,Rej,Participant_Images/5f985596be2ea910b23827ed/5f985596be2ea910b23827ed_Images/5f985596be2ea910b23827ed_Image_23.jpeg,did not like,1.779333479,,,,,,,,,,,,
,,,,,,,space,0.7841,NAN,,NAN,,0,141,141,141,1,142,Sam,Rej,Participant_Images/5f985596be2ea910b23827ed/5f985596be2ea910b23827ed_Images/5f985596be2ea910b23827ed_Image_3.jpeg,did not like,4.312468682,,,,,,,,,,,,
,,,,,,,space,1.6521,NAN,,NAN,,0,142,142,142,1,143,Sam,Rej,Participant_Images/5f985596be2ea910b23827ed/5f985596be2ea910b23827ed_Images/5f985596be2ea910b23827ed_Image_7.jpeg,liked,4.940433059,,,,,,,,,,,,
,,,,,,,space,1.0851,NAN,,NAN,,0,143,143,143,1,144,Sam,Rej,Participant_Images/5f985596be2ea910b23827ed/5f985596be2ea910b23827ed_Images/5f985596be2ea910b23827ed_Image_25.jpeg,did not like,2.7105123,,,,,,,,,,,,
,,,,,,,,,,,,,,,,,,,,,,,,c,0,1.7207,space,0.7714,0,0,0,0,1,,
,,,,,,,,,NAN,,NAN,,0,144,144,144,1,145,Sam,Rej,Participant_Images/5f985596be2ea910b23827ed/5f985596be2ea910b23827ed_Images/5f985596be2ea910b23827ed_Image_28.jpeg,liked,3.602308302,,,,,,,,,,,,
,,,,,,,space,2.169,NAN,,NAN,,0,145,145,145,1,146,Sam,Rej,Participant_Images/5f985596be2ea910b23827ed/5f985596be2ea910b23827ed_Images/5f985596be2ea910b23827ed_Image_15.jpeg,did not like,4.106391878,,,,,,,,,,,,
,,,,,,,space,1.9096,NAN,,NAN,,0,146,146,146,1,147,Sam,Rej,Participant_Images/5f985596be2ea910b23827ed/5f985596be2ea910b23827ed_Images/5f985596be2ea910b23827ed_Image_21.jpeg,did not like,3.799433026,,,,,,,,,,,,
,,,,,,,space,0.4335,NAN,,NAN,,0,147,147,147,1,148,Sam,Rej,Participant_Images/5f985596be2ea910b23827ed/5f985596be2ea910b23827ed_Images/5f985596be2ea910b23827ed_Image_27.jpeg,liked,5.246980764,,,,,,,,,,,,
,,,,,,,space,0.9179,NAN,,NAN,,0,148,148,148,1,149,Sam,Rej,Participant_Images/5f985596be2ea910b23827ed/5f985596be2ea910b23827ed_Images/5f985596be2ea910b23827ed_Image_8.jpeg,liked,3.30081769,,,,,,,,,,,,
,,,,,,,,,,,,,,,,,,,,,,,,c,0,0.7499,space,0.7548,0,0,0,0,1,,
,,,,,,,,,3,,5,,0,149,149,149,1,150,Sam,Rej,Participant_Images/5f985596be2ea910b23827ed/5f985596be2ea910b23827ed_Images/5f985596be2ea910b23827ed_Image_1.jpeg,did not like,1.661473164,,,,,,,,,,,,
,,,,,,,,,,,,,,,,,,,,,,,,,,,,,,,,,,space,3.9576
