PROLIFIC_ID,endwelcomescreen_keys.keys,endwelcomescreen_keys.rt,endinstructionscreen_keys.keys,endinstructionscreen_keys.rt,endpartnermatch_keys.keys,endpartnermatch_keys.rt,sharenextphoto_key.keys,sharenextphoto_key.rt,salience_rating,key_resp.keys,stress_level,stresslevel_keypress.keys,entiretaskloop.thisRepN,entiretaskloop.thisTrialN,entiretaskloop.thisN,entiretaskloop.thisIndex,entiretaskloop.ran,TrialNumber,Partner,Condition,Photos,Feedback,FeedbackWait,choice_keys.keys,playlottery,resumeafterlottery_keys.keys,resumeafterlottery_keys.rt,lotteryloop.thisRepN,lotteryloop.thisTrialN,lotteryloop.thisN,lotteryloop.thisIndex,lotteryloop.ran,choice_keys.rt,lotteryguess_keys.keys,lotteryguess_keys.rt,end_screen_keys.keys,end_screen_keys.rt
5f9873550513db147c9d2958,space,16.979,,,,,,,,,,,,,,,,,,,,,,,,,,,,,,,,,,,
,,,,,,,,,,,,,,,,,,,,,,,,,,,,,,,,,,,,,
,,,space,22.056,,,,,,,,,,,,,,,,,,,,,,,,,,,,,,,,,
,,,,,space,1.913,space,1.694,NAN,,NAN,,0,0,0,0,1,1,Charlie,Acc,Participant_Images/5f9873550513db147c9d2958/5f9873550513db147c9d2958_Images/5f9873550513db147c9d2958_Image_7.jpeg,did not like,3.613205605,,,,,,,,,,,,,,
,,,,,,,space,1.611,NAN,,NAN,,0,1,1,1,1,2,Charlie,Acc,Participant_Images/5f9873550513db147c9d2958/5f9873550513db147c9d2958_Images/5f9873550513db147c9d2958_Image_2.jpeg,liked,4.988446431,,,,,,,,,,,,,,
,,,,,,,space,1.108,NAN,,NAN,,0,2,2,2,1,3,Charlie,Acc,Participant_Images/5f9873550513db147c9d2958/5f9873550513db147c9d2958_Images/5f9873550513db147c9d2958_Image_27.jpeg,liked,3.470791822,,,,,,,,,,,,,,
,,,,,,,space,0.785,NAN,,NAN,,0,3,3,3,1,4,Charlie,Acc,Participant_Images/5f9873550513db147c9d2958/5f9873550513db147c9d2958_Images/5f9873550513db147c9d2958_Image_20.jpeg,liked,3.820572462,,,,,,,,,,,,,,
,,,,,,,,,,,,,,,,,,,,,,,,,999,space,3.331,0,0,0,0,1,,,,,
,,,,,,,,,NAN,,NAN,,0,4,4,4,1,5,Charlie,Acc,Participant_Images/5f9873550513db147c9d2958/5f9873550513db147c9d2958_Images/5f9873550513db147c9d2958_Image_13.jpeg,liked,2.455989137,,,,,,,,,,,,,,
,,,,,,,space,1.25,NAN,,NAN,,0,5,5,5,1,6,Charlie,Acc,Participant_Images/5f9873550513db147c9d2958/5f9873550513db147c9d2958_Images/5f9873550513db147c9d2958_Image_14.jpeg,liked,3.79605092,,,,,,,,,,,,,,
,,,,,,,space,0.554,NAN,,NAN,,0,6,6,6,1,7,Charlie,Acc,Participant_Images/5f9873550513db147c9d2958/5f9873550513db147c9d2958_Images/5f9873550513db147c9d2958_Image_18.jpeg,did not like,3.562416326,,,,,,,,,,,,,,
,,,,,,,space,1.047,NAN,,NAN,,0,7,7,7,1,8,Charlie,Acc,Participant_Images/5f9873550513db147c9d2958/5f9873550513db147c9d2958_Images/5f9873550513db147c9d2958_Image_1.jpeg,liked,2.843822497,,,,,,,,,,,,,,
,,,,,,,space,0.875,NAN,,NAN,,0,8,8,8,1,9,Charlie,Acc,Participant_Images/5f9873550513db147c9d2958/5f9873550513db147c9d2958_Images/5f9873550513db147c9d2958_Image_24.jpeg,liked,3.546495948,,,,,,,,,,,,,,
,,,,,,,,,,,,,,,,,,,,,,,,s,1,space,0.764,0,0,0,0,1,3.79,l,2.82,,
,,,,,,,,,NAN,,NAN,,0,9,9,9,1,10,Charlie,Acc,Participant_Images/5f9873550513db147c9d2958/5f9873550513db147c9d2958_Images/5f9873550513db147c9d2958_Image_3.jpeg,did not like,1.672012706,,,,,,,,,,,,,,
,,,,,,,space,1.008,NAN,,NAN,,0,10,10,10,1,11,Charlie,Acc,Participant_Images/5f9873550513db147c9d2958/5f9873550513db147c9d2958_Images/5f9873550513db147c9d2958_Image_29.jpeg,liked,4.942172136,,,,,,,,,,,,,,
,,,,,,,space,0.58,NAN,,NAN,,0,11,11,11,1,12,Charlie,Acc,Participant_Images/5f9873550513db147c9d2958/5f9873550513db147c9d2958_Images/5f9873550513db147c9d2958_Image_15.jpeg,liked,2.50187214,,,,,,,,,,,,,,
,,,,,,,space,0.743,NAN,,NAN,,0,12,12,12,1,13,Charlie,Acc,Participant_Images/5f9873550513db147c9d2958/5f9873550513db147c9d2958_Images/5f9873550513db147c9d2958_Image_10.jpeg,liked,2.071164779,,,,,,,,,,,,,,
,,,,,,,space,0.703,NAN,,NAN,,0,13,13,13,1,14,Charlie,Acc,Participant_Images/5f9873550513db147c9d2958/5f9873550513db147c9d2958_Images/5f9873550513db147c9d2958_Image_5.jpeg,did not like,5.336503566,,,,,,,,,,,,,,
,,,,,,,,,,,,,,,,,,,,,,,,c,0,space,0.812,0,0,0,0,1,2.496,,,,
,,,,,,,,,NAN,,NAN,,0,14,14,14,1,15,Charlie,Acc,Participant_Images/5f9873550513db147c9d2958/5f9873550513db147c9d2958_Images/5f9873550513db147c9d2958_Image_23.jpeg,liked,2.642157193,,,,,,,,,,,,,,
,,,,,,,space,0.916,NAN,,NAN,,0,15,15,15,1,16,Charlie,Acc,Participant_Images/5f9873550513db147c9d2958/5f9873550513db147c9d2958_Images/5f9873550513db147c9d2958_Image_11.jpeg,liked,4.456234322,,,,,,,,,,,,,,
,,,,,,,space,1.85,NAN,,NAN,,0,16,16,16,1,17,Charlie,Acc,Participant_Images/5f9873550513db147c9d2958/5f9873550513db147c9d2958_Images/5f9873550513db147c9d2958_Image_28.jpeg,liked,4.438512181,,,,,,,,,,,,,,
,,,,,,,space,1.076,NAN,,NAN,,0,17,17,17,1,18,Charlie,Acc,Participant_Images/5f9873550513db147c9d2958/5f9873550513db147c9d2958_Images/5f9873550513db147c9d2958_Image_12.jpeg,did not like,2.682944783,,,,,,,,,,,,,,
,,,,,,,space,1.001,NAN,,NAN,,0,18,18,18,1,19,Charlie,Acc,Participant_Images/5f9873550513db147c9d2958/5f9873550513db147c9d2958_Images/5f9873550513db147c9d2958_Image_9.jpeg,did not like,4.51984296,,,,,,,,,,,,,,
,,,,,,,,,,,,,,,,,,,,,,,,s,1,space,0.984,0,0,0,0,1,1.604,h,2.26,,
,,,,,,,,,NAN,,NAN,,0,19,19,19,1,20,Charlie,Acc,Participant_Images/5f9873550513db147c9d2958/5f9873550513db147c9d2958_Images/5f9873550513db147c9d2958_Image_8.jpeg,liked,3.195382774,,,,,,,,,,,,,,
,,,,,,,space,0.514,NAN,,NAN,,0,20,20,20,1,21,Charlie,Acc,Participant_Images/5f9873550513db147c9d2958/5f9873550513db147c9d2958_Images/5f9873550513db147c9d2958_Image_30.jpeg,liked,1.779333479,,,,,,,,,,,,,,
,,,,,,,space,0.825,NAN,,NAN,,0,21,21,21,1,22,Charlie,Acc,Participant_Images/5f9873550513db147c9d2958/5f9873550513db147c9d2958_Images/5f9873550513db147c9d2958_Image_26.jpeg,liked,4.312468682,,,,,,,,,,,,,,
,,,,,,,space,1.417,NAN,,NAN,,0,22,22,22,1,23,Charlie,Acc,Participant_Images/5f9873550513db147c9d2958/5f9873550513db147c9d2958_Images/5f9873550513db147c9d2958_Image_4.jpeg,liked,4.940433059,,,,,,,,,,,,,,
,,,,,,,space,0.882,NAN,,NAN,,0,23,23,23,1,24,Charlie,Acc,Participant_Images/5f9873550513db147c9d2958/5f9873550513db147c9d2958_Images/5f9873550513db147c9d2958_Image_21.jpeg,liked,2.7105123,,,,,,,,,,,,,,
,,,,,,,,,,,,,,,,,,,,,,,,s,1,space,0.775,0,0,0,0,1,1.022,h,2.661,,
,,,,,,,,,NAN,,NAN,,0,24,24,24,1,25,Charlie,Acc,Participant_Images/5f9873550513db147c9d2958/5f9873550513db147c9d2958_Images/5f9873550513db147c9d2958_Image_6.jpeg,did not like,3.602308302,,,,,,,,,,,,,,
,,,,,,,space,0.417,NAN,,NAN,,0,25,25,25,1,26,Charlie,Acc,Participant_Images/5f9873550513db147c9d2958/5f9873550513db147c9d2958_Images/5f9873550513db147c9d2958_Image_19.jpeg,liked,4.106391878,,,,,,,,,,,,,,
,,,,,,,space,0.409,NAN,,NAN,,0,26,26,26,1,27,Charlie,Acc,Participant_Images/5f9873550513db147c9d2958/5f9873550513db147c9d2958_Images/5f9873550513db147c9d2958_Image_22.jpeg,did not like,3.799433026,,,,,,,,,,,,,,
,,,,,,,space,1.085,NAN,,NAN,,0,27,27,27,1,28,Charlie,Acc,Participant_Images/5f9873550513db147c9d2958/5f9873550513db147c9d2958_Images/5f9873550513db147c9d2958_Image_17.jpeg,liked,5.246980764,,,,,,,,,,,,,,
,,,,,,,space,0.557,NAN,,NAN,,0,28,28,28,1,29,Charlie,Acc,Participant_Images/5f9873550513db147c9d2958/5f9873550513db147c9d2958_Images/5f9873550513db147c9d2958_Image_25.jpeg,liked,3.30081769,,,,,,,,,,,,,,
,,,,,,,,,,,,,,,,,,,,,,,,c,0,space,0.7,0,0,0,0,1,1.064,,,,
,,,,,,,,,1,,5,,0,29,29,29,1,30,Charlie,Acc,Participant_Images/5f9873550513db147c9d2958/5f9873550513db147c9d2958_Images/5f9873550513db147c9d2958_Image_16.jpeg,did not like,1.661473164,,,,,,,,,,,,,,
,,,,,space,1.695,space,4.513,NAN,,NAN,,0,30,30,30,1,31,Alex,Acc,Participant_Images/5f9873550513db147c9d2958/5f9873550513db147c9d2958_Images/5f9873550513db147c9d2958_Image_18.jpeg,liked,3.613205605,,,,,,,,,,,,,,
,,,,,,,space,0.505,NAN,,NAN,,0,31,31,31,1,32,Alex,Acc,Participant_Images/5f9873550513db147c9d2958/5f9873550513db147c9d2958_Images/5f9873550513db147c9d2958_Image_14.jpeg,liked,4.988446431,,,,,,,,,,,,,,
,,,,,,,space,0.585,NAN,,NAN,,0,32,32,32,1,33,Alex,Acc,Participant_Images/5f9873550513db147c9d2958/5f9873550513db147c9d2958_Images/5f9873550513db147c9d2958_Image_16.jpeg,liked,3.470791822,,,,,,,,,,,,,,
,,,,,,,space,0.492,NAN,,NAN,,0,33,33,33,1,34,Alex,Acc,Participant_Images/5f9873550513db147c9d2958/5f9873550513db147c9d2958_Images/5f9873550513db147c9d2958_Image_25.jpeg,liked,3.820572462,,,,,,,,,,,,,,
,,,,,,,,,,,,,,,,,,,,,,,,s,1,space,1.008,0,0,0,0,1,0.911,l,0.777,,
,,,,,,,,,NAN,,NAN,,0,34,34,34,1,35,Alex,Acc,Participant_Images/5f9873550513db147c9d2958/5f9873550513db147c9d2958_Images/5f9873550513db147c9d2958_Image_10.jpeg,liked,2.455989137,,,,,,,,,,,,,,
,,,,,,,space,0.581,NAN,,NAN,,0,35,35,35,1,36,Alex,Acc,Participant_Images/5f9873550513db147c9d2958/5f9873550513db147c9d2958_Images/5f9873550513db147c9d2958_Image_5.jpeg,liked,3.79605092,,,,,,,,,,,,,,
,,,,,,,space,0.38,NAN,,NAN,,0,36,36,36,1,37,Alex,Acc,Participant_Images/5f9873550513db147c9d2958/5f9873550513db147c9d2958_Images/5f9873550513db147c9d2958_Image_21.jpeg,liked,3.562416326,,,,,,,,,,,,,,
,,,,,,,space,0.49,NAN,,NAN,,0,37,37,37,1,38,Alex,Acc,Participant_Images/5f9873550513db147c9d2958/5f9873550513db147c9d2958_Images/5f9873550513db147c9d2958_Image_11.jpeg,liked,2.843822497,,,,,,,,,,,,,,
,,,,,,,space,0.731,NAN,,NAN,,0,38,38,38,1,39,Alex,Acc,Participant_Images/5f9873550513db147c9d2958/5f9873550513db147c9d2958_Images/5f9873550513db147c9d2958_Image_22.jpeg,did not like,3.546495948,,,,,,,,,,,,,,
,,,,,,,,,,,,,,,,,,,,,,,,s,1,space,0.838,0,0,0,0,1,0.801,l,0.534,,
,,,,,,,,,NAN,,NAN,,0,39,39,39,1,40,Alex,Acc,Participant_Images/5f9873550513db147c9d2958/5f9873550513db147c9d2958_Images/5f9873550513db147c9d2958_Image_30.jpeg,did not like,1.672012706,,,,,,,,,,,,,,
,,,,,,,space,0.601,NAN,,NAN,,0,40,40,40,1,41,Alex,Acc,Participant_Images/5f9873550513db147c9d2958/5f9873550513db147c9d2958_Images/5f9873550513db147c9d2958_Image_19.jpeg,did not like,4.942172136,,,,,,,,,,,,,,
,,,,,,,space,0.843,NAN,,NAN,,0,41,41,41,1,42,Alex,Acc,Participant_Images/5f9873550513db147c9d2958/5f9873550513db147c9d2958_Images/5f9873550513db147c9d2958_Image_2.jpeg,liked,2.50187214,,,,,,,,,,,,,,
,,,,,,,space,0.516,NAN,,NAN,,0,42,42,42,1,43,Alex,Acc,Participant_Images/5f9873550513db147c9d2958/5f9873550513db147c9d2958_Images/5f9873550513db147c9d2958_Image_9.jpeg,liked,2.071164779,,,,,,,,,,,,,,
,,,,,,,space,0.717,NAN,,NAN,,0,43,43,43,1,44,Alex,Acc,Participant_Images/5f9873550513db147c9d2958/5f9873550513db147c9d2958_Images/5f9873550513db147c9d2958_Image_17.jpeg,liked,5.336503566,,,,,,,,,,,,,,
,,,,,,,,,,,,,,,,,,,,,,,,c,0,space,0.677,0,0,0,0,1,0.584,,,,
,,,,,,,,,NAN,,NAN,,0,44,44,44,1,45,Alex,Acc,Participant_Images/5f9873550513db147c9d2958/5f9873550513db147c9d2958_Images/5f9873550513db147c9d2958_Image_13.jpeg,liked,2.642157193,,,,,,,,,,,,,,
,,,,,,,space,1.018,NAN,,NAN,,0,45,45,45,1,46,Alex,Acc,Participant_Images/5f9873550513db147c9d2958/5f9873550513db147c9d2958_Images/5f9873550513db147c9d2958_Image_29.jpeg,did not like,4.456234322,,,,,,,,,,,,,,
,,,,,,,space,0.88,NAN,,NAN,,0,46,46,46,1,47,Alex,Acc,Participant_Images/5f9873550513db147c9d2958/5f9873550513db147c9d2958_Images/5f9873550513db147c9d2958_Image_12.jpeg,liked,4.438512181,,,,,,,,,,,,,,
,,,,,,,space,0.475,NAN,,NAN,,0,47,47,47,1,48,Alex,Acc,Participant_Images/5f9873550513db147c9d2958/5f9873550513db147c9d2958_Images/5f9873550513db147c9d2958_Image_8.jpeg,did not like,2.682944783,,,,,,,,,,,,,,
,,,,,,,space,0.58,NAN,,NAN,,0,48,48,48,1,49,Alex,Acc,Participant_Images/5f9873550513db147c9d2958/5f9873550513db147c9d2958_Images/5f9873550513db147c9d2958_Image_15.jpeg,did not like,4.51984296,,,,,,,,,,,,,,
,,,,,,,,,,,,,,,,,,,,,,,,c,0,space,0.595,0,0,0,0,1,1.09,,,,
,,,,,,,,,NAN,,NAN,,0,49,49,49,1,50,Alex,Acc,Participant_Images/5f9873550513db147c9d2958/5f9873550513db147c9d2958_Images/5f9873550513db147c9d2958_Image_26.jpeg,did not like,3.195382774,,,,,,,,,,,,,,
,,,,,,,space,0.378,NAN,,NAN,,0,50,50,50,1,51,Alex,Acc,Participant_Images/5f9873550513db147c9d2958/5f9873550513db147c9d2958_Images/5f9873550513db147c9d2958_Image_7.jpeg,liked,1.779333479,,,,,,,,,,,,,,
,,,,,,,space,0.929,NAN,,NAN,,0,51,51,51,1,52,Alex,Acc,Participant_Images/5f9873550513db147c9d2958/5f9873550513db147c9d2958_Images/5f9873550513db147c9d2958_Image_4.jpeg,did not like,4.312468682,,,,,,,,,,,,,,
,,,,,,,space,0.673,NAN,,NAN,,0,52,52,52,1,53,Alex,Acc,Participant_Images/5f9873550513db147c9d2958/5f9873550513db147c9d2958_Images/5f9873550513db147c9d2958_Image_24.jpeg,liked,4.940433059,,,,,,,,,,,,,,
,,,,,,,space,0.665,NAN,,NAN,,0,53,53,53,1,54,Alex,Acc,Participant_Images/5f9873550513db147c9d2958/5f9873550513db147c9d2958_Images/5f9873550513db147c9d2958_Image_6.jpeg,liked,2.7105123,,,,,,,,,,,,,,
,,,,,,,,,,,,,,,,,,,,,,,,c,0,space,3.894,0,0,0,0,1,0.916,,,,
,,,,,,,,,NAN,,NAN,,0,54,54,54,1,55,Alex,Acc,Participant_Images/5f9873550513db147c9d2958/5f9873550513db147c9d2958_Images/5f9873550513db147c9d2958_Image_20.jpeg,liked,3.602308302,,,,,,,,,,,,,,
,,,,,,,space,1.048,NAN,,NAN,,0,55,55,55,1,56,Alex,Acc,Participant_Images/5f9873550513db147c9d2958/5f9873550513db147c9d2958_Images/5f9873550513db147c9d2958_Image_3.jpeg,liked,4.106391878,,,,,,,,,,,,,,
,,,,,,,space,0.001,NAN,,NAN,,0,56,56,56,1,57,Alex,Acc,Participant_Images/5f9873550513db147c9d2958/5f9873550513db147c9d2958_Images/5f9873550513db147c9d2958_Image_27.jpeg,liked,3.799433026,,,,,,,,,,,,,,
,,,,,,,space,0.757,NAN,,NAN,,0,57,57,57,1,58,Alex,Acc,Participant_Images/5f9873550513db147c9d2958/5f9873550513db147c9d2958_Images/5f9873550513db147c9d2958_Image_1.jpeg,did not like,5.246980764,,,,,,,,,,,,,,
,,,,,,,space,0.915,NAN,,NAN,,0,58,58,58,1,59,Alex,Acc,Participant_Images/5f9873550513db147c9d2958/5f9873550513db147c9d2958_Images/5f9873550513db147c9d2958_Image_28.jpeg,liked,3.30081769,,,,,,,,,,,,,,
,,,,,,,,,,,,,,,,,,,,,,,,c,0,space,0.521,0,0,0,0,1,0.994,,,,
,,,,,,,,,2,,5,,0,59,59,59,1,60,Alex,Acc,Participant_Images/5f9873550513db147c9d2958/5f9873550513db147c9d2958_Images/5f9873550513db147c9d2958_Image_23.jpeg,liked,1.661473164,,,,,,,,,,,,,,
,,,,,space,1.088,space,0.629,NAN,,NAN,,0,60,60,60,1,61,Taylor,Neutral,Participant_Images/5f9873550513db147c9d2958/5f9873550513db147c9d2958_Images/5f9873550513db147c9d2958_Image_28.jpeg,liked,3.613205605,,,,,,,,,,,,,,
,,,,,,,space,1.649,NAN,,NAN,,0,61,61,61,1,62,Taylor,Neutral,Participant_Images/5f9873550513db147c9d2958/5f9873550513db147c9d2958_Images/5f9873550513db147c9d2958_Image_6.jpeg,liked,4.988446431,,,,,,,,,,,,,,
,,,,,,,space,1.352,NAN,,NAN,,0,62,62,62,1,63,Taylor,Neutral,Participant_Images/5f9873550513db147c9d2958/5f9873550513db147c9d2958_Images/5f9873550513db147c9d2958_Image_25.jpeg,liked,3.470791822,,,,,,,,,,,,,,
,,,,,,,space,0.599,NAN,,NAN,,0,63,63,63,1,64,Taylor,Neutral,Participant_Images/5f9873550513db147c9d2958/5f9873550513db147c9d2958_Images/5f9873550513db147c9d2958_Image_9.jpeg,did not like,3.820572462,,,,,,,,,,,,,,
,,,,,,,,,,,,,,,,,,,,,,,,s,1,space,0.648,0,0,0,0,1,0.749,l,0.527,,
,,,,,,,,,NAN,,NAN,,0,64,64,64,1,65,Taylor,Neutral,Participant_Images/5f9873550513db147c9d2958/5f9873550513db147c9d2958_Images/5f9873550513db147c9d2958_Image_7.jpeg,liked,2.455989137,,,,,,,,,,,,,,
,,,,,,,space,1.109,NAN,,NAN,,0,65,65,65,1,66,Taylor,Neutral,Participant_Images/5f9873550513db147c9d2958/5f9873550513db147c9d2958_Images/5f9873550513db147c9d2958_Image_24.jpeg,liked,3.79605092,,,,,,,,,,,,,,
,,,,,,,space,0.423,NAN,,NAN,,0,66,66,66,1,67,Taylor,Neutral,Participant_Images/5f9873550513db147c9d2958/5f9873550513db147c9d2958_Images/5f9873550513db147c9d2958_Image_5.jpeg,did not like,3.562416326,,,,,,,,,,,,,,
,,,,,,,space,0.553,NAN,,NAN,,0,67,67,67,1,68,Taylor,Neutral,Participant_Images/5f9873550513db147c9d2958/5f9873550513db147c9d2958_Images/5f9873550513db147c9d2958_Image_27.jpeg,did not like,2.843822497,,,,,,,,,,,,,,
,,,,,,,space,0.961,NAN,,NAN,,0,68,68,68,1,69,Taylor,Neutral,Participant_Images/5f9873550513db147c9d2958/5f9873550513db147c9d2958_Images/5f9873550513db147c9d2958_Image_18.jpeg,did not like,3.546495948,,,,,,,,,,,,,,
,,,,,,,,,,,,,,,,,,,,,,,,s,1,space,0.529,0,0,0,0,1,0.846,h,0.407,,
,,,,,,,,,NAN,,NAN,,0,69,69,69,1,70,Taylor,Neutral,Participant_Images/5f9873550513db147c9d2958/5f9873550513db147c9d2958_Images/5f9873550513db147c9d2958_Image_8.jpeg,liked,1.672012706,,,,,,,,,,,,,,
,,,,,,,space,0.737,NAN,,NAN,,0,70,70,70,1,71,Taylor,Neutral,Participant_Images/5f9873550513db147c9d2958/5f9873550513db147c9d2958_Images/5f9873550513db147c9d2958_Image_20.jpeg,liked,4.942172136,,,,,,,,,,,,,,
,,,,,,,space,0.71,NAN,,NAN,,0,71,71,71,1,72,Taylor,Neutral,Participant_Images/5f9873550513db147c9d2958/5f9873550513db147c9d2958_Images/5f9873550513db147c9d2958_Image_14.jpeg,did not like,2.50187214,,,,,,,,,,,,,,
,,,,,,,space,0.531,NAN,,NAN,,0,72,72,72,1,73,Taylor,Neutral,Participant_Images/5f9873550513db147c9d2958/5f9873550513db147c9d2958_Images/5f9873550513db147c9d2958_Image_15.jpeg,liked,2.071164779,,,,,,,,,,,,,,
,,,,,,,space,0.585,NAN,,NAN,,0,73,73,73,1,74,Taylor,Neutral,Participant_Images/5f9873550513db147c9d2958/5f9873550513db147c9d2958_Images/5f9873550513db147c9d2958_Image_2.jpeg,did not like,5.336503566,,,,,,,,,,,,,,
,,,,,,,,,,,,,,,,,,,,,,,,c,0,space,1.308,0,0,0,0,1,0.534,,,,
,,,,,,,,,NAN,,NAN,,0,74,74,74,1,75,Taylor,Neutral,Participant_Images/5f9873550513db147c9d2958/5f9873550513db147c9d2958_Images/5f9873550513db147c9d2958_Image_10.jpeg,liked,2.642157193,,,,,,,,,,,,,,
,,,,,,,space,0.62,NAN,,NAN,,0,75,75,75,1,76,Taylor,Neutral,Participant_Images/5f9873550513db147c9d2958/5f9873550513db147c9d2958_Images/5f9873550513db147c9d2958_Image_16.jpeg,liked,4.456234322,,,,,,,,,,,,,,
,,,,,,,space,0.862,NAN,,NAN,,0,76,76,76,1,77,Taylor,Neutral,Participant_Images/5f9873550513db147c9d2958/5f9873550513db147c9d2958_Images/5f9873550513db147c9d2958_Image_22.jpeg,did not like,4.438512181,,,,,,,,,,,,,,
,,,,,,,space,1.003,NAN,,NAN,,0,77,77,77,1,78,Taylor,Neutral,Participant_Images/5f9873550513db147c9d2958/5f9873550513db147c9d2958_Images/5f9873550513db147c9d2958_Image_19.jpeg,did not like,2.682944783,,,,,,,,,,,,,,
,,,,,,,space,1.015,NAN,,NAN,,0,78,78,78,1,79,Taylor,Neutral,Participant_Images/5f9873550513db147c9d2958/5f9873550513db147c9d2958_Images/5f9873550513db147c9d2958_Image_29.jpeg,did not like,4.51984296,,,,,,,,,,,,,,
,,,,,,,,,,,,,,,,,,,,,,,,s,1,space,0.621,0,0,0,0,1,0.957,h,0.71,,
,,,,,,,,,NAN,,NAN,,0,79,79,79,1,80,Taylor,Neutral,Participant_Images/5f9873550513db147c9d2958/5f9873550513db147c9d2958_Images/5f9873550513db147c9d2958_Image_23.jpeg,did not like,3.195382774,,,,,,,,,,,,,,
,,,,,,,space,0.506,NAN,,NAN,,0,80,80,80,1,81,Taylor,Neutral,Participant_Images/5f9873550513db147c9d2958/5f9873550513db147c9d2958_Images/5f9873550513db147c9d2958_Image_13.jpeg,liked,1.779333479,,,,,,,,,,,,,,
,,,,,,,space,0.675,NAN,,NAN,,0,81,81,81,1,82,Taylor,Neutral,Participant_Images/5f9873550513db147c9d2958/5f9873550513db147c9d2958_Images/5f9873550513db147c9d2958_Image_4.jpeg,did not like,4.312468682,,,,,,,,,,,,,,
,,,,,,,space,0.251,NAN,,NAN,,0,82,82,82,1,83,Taylor,Neutral,Participant_Images/5f9873550513db147c9d2958/5f9873550513db147c9d2958_Images/5f9873550513db147c9d2958_Image_12.jpeg,liked,4.940433059,,,,,,,,,,,,,,
,,,,,,,space,0.801,NAN,,NAN,,0,83,83,83,1,84,Taylor,Neutral,Participant_Images/5f9873550513db147c9d2958/5f9873550513db147c9d2958_Images/5f9873550513db147c9d2958_Image_17.jpeg,did not like,2.7105123,,,,,,,,,,,,,,
,,,,,,,,,,,,,,,,,,,,,,,,c,0,space,0.646,0,0,0,0,1,0.895,,,,
,,,,,,,,,NAN,,NAN,,0,84,84,84,1,85,Taylor,Neutral,Participant_Images/5f9873550513db147c9d2958/5f9873550513db147c9d2958_Images/5f9873550513db147c9d2958_Image_30.jpeg,liked,3.602308302,,,,,,,,,,,,,,
,,,,,,,space,0.743,NAN,,NAN,,0,85,85,85,1,86,Taylor,Neutral,Participant_Images/5f9873550513db147c9d2958/5f9873550513db147c9d2958_Images/5f9873550513db147c9d2958_Image_1.jpeg,did not like,4.106391878,,,,,,,,,,,,,,
,,,,,,,space,0.742,NAN,,NAN,,0,86,86,86,1,87,Taylor,Neutral,Participant_Images/5f9873550513db147c9d2958/5f9873550513db147c9d2958_Images/5f9873550513db147c9d2958_Image_26.jpeg,did not like,3.799433026,,,,,,,,,,,,,,
,,,,,,,space,0.671,NAN,,NAN,,0,87,87,87,1,88,Taylor,Neutral,Participant_Images/5f9873550513db147c9d2958/5f9873550513db147c9d2958_Images/5f9873550513db147c9d2958_Image_3.jpeg,liked,5.246980764,,,,,,,,,,,,,,
,,,,,,,space,5.809,NAN,,NAN,,0,88,88,88,1,89,Taylor,Neutral,Participant_Images/5f9873550513db147c9d2958/5f9873550513db147c9d2958_Images/5f9873550513db147c9d2958_Image_11.jpeg,did not like,3.30081769,,,,,,,,,,,,,,
,,,,,,,,,,,,,,,,,,,,,,,,c,0,space,0.576,0,0,0,0,1,0.932,,,,
,,,,,,,,,2,,5,,0,89,89,89,1,90,Taylor,Neutral,Participant_Images/5f9873550513db147c9d2958/5f9873550513db147c9d2958_Images/5f9873550513db147c9d2958_Image_21.jpeg,liked,1.661473164,,,,,,,,,,,,,,
,,,,,space,1.52,space,0.482,NAN,,NAN,,0,90,90,90,1,91,Riley,Rej,Participant_Images/5f9873550513db147c9d2958/5f9873550513db147c9d2958_Images/5f9873550513db147c9d2958_Image_21.jpeg,did not like,3.613205605,,,,,,,,,,,,,,
,,,,,,,space,0.241,NAN,,NAN,,0,91,91,91,1,92,Riley,Rej,Participant_Images/5f9873550513db147c9d2958/5f9873550513db147c9d2958_Images/5f9873550513db147c9d2958_Image_22.jpeg,did not like,4.988446431,,,,,,,,,,,,,,
,,,,,,,space,0.506,NAN,,NAN,,0,92,92,92,1,93,Riley,Rej,Participant_Images/5f9873550513db147c9d2958/5f9873550513db147c9d2958_Images/5f9873550513db147c9d2958_Image_5.jpeg,did not like,3.470791822,,,,,,,,,,,,,,
,,,,,,,space,0.546,NAN,,NAN,,0,93,93,93,1,94,Riley,Rej,Participant_Images/5f9873550513db147c9d2958/5f9873550513db147c9d2958_Images/5f9873550513db147c9d2958_Image_7.jpeg,liked,3.820572462,,,,,,,,,,,,,,
,,,,,,,,,,,,,,,,,,,,,,,,s,1,space,0.772,0,0,0,0,1,0.783,h,0.54,,
,,,,,,,,,NAN,,NAN,,0,94,94,94,1,95,Riley,Rej,Participant_Images/5f9873550513db147c9d2958/5f9873550513db147c9d2958_Images/5f9873550513db147c9d2958_Image_1.jpeg,did not like,2.455989137,,,,,,,,,,,,,,
,,,,,,,space,0.568,NAN,,NAN,,0,95,95,95,1,96,Riley,Rej,Participant_Images/5f9873550513db147c9d2958/5f9873550513db147c9d2958_Images/5f9873550513db147c9d2958_Image_6.jpeg,did not like,3.79605092,,,,,,,,,,,,,,
,,,,,,,space,0.034,NAN,,NAN,,0,96,96,96,1,97,Riley,Rej,Participant_Images/5f9873550513db147c9d2958/5f9873550513db147c9d2958_Images/5f9873550513db147c9d2958_Image_24.jpeg,liked,3.562416326,,,,,,,,,,,,,,
,,,,,,,space,0.958,NAN,,NAN,,0,97,97,97,1,98,Riley,Rej,Participant_Images/5f9873550513db147c9d2958/5f9873550513db147c9d2958_Images/5f9873550513db147c9d2958_Image_30.jpeg,did not like,2.843822497,,,,,,,,,,,,,,
,,,,,,,space,0.543,NAN,,NAN,,0,98,98,98,1,99,Riley,Rej,Participant_Images/5f9873550513db147c9d2958/5f9873550513db147c9d2958_Images/5f9873550513db147c9d2958_Image_29.jpeg,liked,3.546495948,,,,,,,,,,,,,,
,,,,,,,,,,,,,,,,,,,,,,,,s,1,space,0.463,0,0,0,0,1,2.06,l,0.562,,
,,,,,,,,,NAN,,NAN,,0,99,99,99,1,100,Riley,Rej,Participant_Images/5f9873550513db147c9d2958/5f9873550513db147c9d2958_Images/5f9873550513db147c9d2958_Image_25.jpeg,did not like,1.672012706,,,,,,,,,,,,,,
,,,,,,,space,0.727,NAN,,NAN,,0,100,100,100,1,101,Riley,Rej,Participant_Images/5f9873550513db147c9d2958/5f9873550513db147c9d2958_Images/5f9873550513db147c9d2958_Image_14.jpeg,did not like,4.942172136,,,,,,,,,,,,,,
,,,,,,,space,1.986,NAN,,NAN,,0,101,101,101,1,102,Riley,Rej,Participant_Images/5f9873550513db147c9d2958/5f9873550513db147c9d2958_Images/5f9873550513db147c9d2958_Image_9.jpeg,did not like,2.50187214,,,,,,,,,,,,,,
,,,,,,,space,3.899,NAN,,NAN,,0,102,102,102,1,103,Riley,Rej,Participant_Images/5f9873550513db147c9d2958/5f9873550513db147c9d2958_Images/5f9873550513db147c9d2958_Image_20.jpeg,did not like,2.071164779,,,,,,,,,,,,,,
,,,,,,,space,0.555,NAN,,NAN,,0,103,103,103,1,104,Riley,Rej,Participant_Images/5f9873550513db147c9d2958/5f9873550513db147c9d2958_Images/5f9873550513db147c9d2958_Image_26.jpeg,did not like,5.336503566,,,,,,,,,,,,,,
,,,,,,,,,,,,,,,,,,,,,,,,s,1,space,1.339,0,0,0,0,1,1.058,l,0.419,,
,,,,,,,,,NAN,,NAN,,0,104,104,104,1,105,Riley,Rej,Participant_Images/5f9873550513db147c9d2958/5f9873550513db147c9d2958_Images/5f9873550513db147c9d2958_Image_10.jpeg,liked,2.642157193,,,,,,,,,,,,,,
,,,,,,,space,2.101,NAN,,NAN,,0,105,105,105,1,106,Riley,Rej,Participant_Images/5f9873550513db147c9d2958/5f9873550513db147c9d2958_Images/5f9873550513db147c9d2958_Image_16.jpeg,liked,4.456234322,,,,,,,,,,,,,,
,,,,,,,space,0.917,NAN,,NAN,,0,106,106,106,1,107,Riley,Rej,Participant_Images/5f9873550513db147c9d2958/5f9873550513db147c9d2958_Images/5f9873550513db147c9d2958_Image_15.jpeg,liked,4.438512181,,,,,,,,,,,,,,
,,,,,,,space,0.522,NAN,,NAN,,0,107,107,107,1,108,Riley,Rej,Participant_Images/5f9873550513db147c9d2958/5f9873550513db147c9d2958_Images/5f9873550513db147c9d2958_Image_23.jpeg,did not like,2.682944783,,,,,,,,,,,,,,
,,,,,,,space,0.631,NAN,,NAN,,0,108,108,108,1,109,Riley,Rej,Participant_Images/5f9873550513db147c9d2958/5f9873550513db147c9d2958_Images/5f9873550513db147c9d2958_Image_18.jpeg,did not like,4.51984296,,,,,,,,,,,,,,
,,,,,,,,,,,,,,,,,,,,,,,,c,0,space,0.662,0,0,0,0,1,0.903,,,,
,,,,,,,,,NAN,,NAN,,0,109,109,109,1,110,Riley,Rej,Participant_Images/5f9873550513db147c9d2958/5f9873550513db147c9d2958_Images/5f9873550513db147c9d2958_Image_8.jpeg,liked,3.195382774,,,,,,,,,,,,,,
,,,,,,,space,0.415,NAN,,NAN,,0,110,110,110,1,111,Riley,Rej,Participant_Images/5f9873550513db147c9d2958/5f9873550513db147c9d2958_Images/5f9873550513db147c9d2958_Image_27.jpeg,did not like,1.779333479,,,,,,,,,,,,,,
,,,,,,,space,0.731,NAN,,NAN,,0,111,111,111,1,112,Riley,Rej,Participant_Images/5f9873550513db147c9d2958/5f9873550513db147c9d2958_Images/5f9873550513db147c9d2958_Image_19.jpeg,did not like,4.312468682,,,,,,,,,,,,,,
,,,,,,,space,0.265,NAN,,NAN,,0,112,112,112,1,113,Riley,Rej,Participant_Images/5f9873550513db147c9d2958/5f9873550513db147c9d2958_Images/5f9873550513db147c9d2958_Image_13.jpeg,did not like,4.940433059,,,,,,,,,,,,,,
,,,,,,,space,1.355,NAN,,NAN,,0,113,113,113,1,114,Riley,Rej,Participant_Images/5f9873550513db147c9d2958/5f9873550513db147c9d2958_Images/5f9873550513db147c9d2958_Image_2.jpeg,did not like,2.7105123,,,,,,,,,,,,,,
,,,,,,,,,,,,,,,,,,,,,,,,s,1,space,1.437,0,0,0,0,1,0.797,l,2.052,,
,,,,,,,,,NAN,,NAN,,0,114,114,114,1,115,Riley,Rej,Participant_Images/5f9873550513db147c9d2958/5f9873550513db147c9d2958_Images/5f9873550513db147c9d2958_Image_11.jpeg,did not like,3.602308302,,,,,,,,,,,,,,
,,,,,,,space,2.268,NAN,,NAN,,0,115,115,115,1,116,Riley,Rej,Participant_Images/5f9873550513db147c9d2958/5f9873550513db147c9d2958_Images/5f9873550513db147c9d2958_Image_28.jpeg,did not like,4.106391878,,,,,,,,,,,,,,
,,,,,,,space,1.568,NAN,,NAN,,0,116,116,116,1,117,Riley,Rej,Participant_Images/5f9873550513db147c9d2958/5f9873550513db147c9d2958_Images/5f9873550513db147c9d2958_Image_12.jpeg,did not like,3.799433026,,,,,,,,,,,,,,
,,,,,,,space,0.529,NAN,,NAN,,0,117,117,117,1,118,Riley,Rej,Participant_Images/5f9873550513db147c9d2958/5f9873550513db147c9d2958_Images/5f9873550513db147c9d2958_Image_17.jpeg,liked,5.246980764,,,,,,,,,,,,,,
,,,,,,,space,0.826,NAN,,NAN,,0,118,118,118,1,119,Riley,Rej,Participant_Images/5f9873550513db147c9d2958/5f9873550513db147c9d2958_Images/5f9873550513db147c9d2958_Image_4.jpeg,did not like,3.30081769,,,,,,,,,,,,,,
,,,,,,,,,,,,,,,,,,,,,,,,s,1,space,0.55,0,0,0,0,1,1.593,l,0.773,,
,,,,,,,,,1,,5,,0,119,119,119,1,120,Riley,Rej,Participant_Images/5f9873550513db147c9d2958/5f9873550513db147c9d2958_Images/5f9873550513db147c9d2958_Image_3.jpeg,liked,1.661473164,,,,,,,,,,,,,,
,,,,,space,1.292,space,0.653,NAN,,NAN,,0,120,120,120,1,121,Sam,Rej,Participant_Images/5f9873550513db147c9d2958/5f9873550513db147c9d2958_Images/5f9873550513db147c9d2958_Image_14.jpeg,did not like,3.613205605,,,,,,,,,,,,,,
,,,,,,,space,0.753,NAN,,NAN,,0,121,121,121,1,122,Sam,Rej,Participant_Images/5f9873550513db147c9d2958/5f9873550513db147c9d2958_Images/5f9873550513db147c9d2958_Image_4.jpeg,did not like,4.988446431,,,,,,,,,,,,,,
,,,,,,,space,0.821,NAN,,NAN,,0,122,122,122,1,123,Sam,Rej,Participant_Images/5f9873550513db147c9d2958/5f9873550513db147c9d2958_Images/5f9873550513db147c9d2958_Image_28.jpeg,did not like,3.470791822,,,,,,,,,,,,,,
,,,,,,,space,1.4,NAN,,NAN,,0,123,123,123,1,124,Sam,Rej,Participant_Images/5f9873550513db147c9d2958/5f9873550513db147c9d2958_Images/5f9873550513db147c9d2958_Image_5.jpeg,did not like,3.820572462,,,,,,,,,,,,,,
,,,,,,,,,,,,,,,,,,,,,,,,c,0,space,0.805,0,0,0,0,1,2.116,,,,
,,,,,,,,,NAN,,NAN,,0,124,124,124,1,125,Sam,Rej,Participant_Images/5f9873550513db147c9d2958/5f9873550513db147c9d2958_Images/5f9873550513db147c9d2958_Image_27.jpeg,liked,2.455989137,,,,,,,,,,,,,,
,,,,,,,space,5.58,NAN,,NAN,,0,125,125,125,1,126,Sam,Rej,Participant_Images/5f9873550513db147c9d2958/5f9873550513db147c9d2958_Images/5f9873550513db147c9d2958_Image_9.jpeg,did not like,3.79605092,,,,,,,,,,,,,,
,,,,,,,space,0.995,NAN,,NAN,,0,126,126,126,1,127,Sam,Rej,Participant_Images/5f9873550513db147c9d2958/5f9873550513db147c9d2958_Images/5f9873550513db147c9d2958_Image_13.jpeg,did not like,3.562416326,,,,,,,,,,,,,,
,,,,,,,space,1.009,NAN,,NAN,,0,127,127,127,1,128,Sam,Rej,Participant_Images/5f9873550513db147c9d2958/5f9873550513db147c9d2958_Images/5f9873550513db147c9d2958_Image_24.jpeg,liked,2.843822497,,,,,,,,,,,,,,
,,,,,,,space,0.773,NAN,,NAN,,0,128,128,128,1,129,Sam,Rej,Participant_Images/5f9873550513db147c9d2958/5f9873550513db147c9d2958_Images/5f9873550513db147c9d2958_Image_12.jpeg,did not like,3.546495948,,,,,,,,,,,,,,
,,,,,,,,,,,,,,,,,,,,,,,,s,1,space,0.983,0,0,0,0,1,1.961,l,1.124,,
,,,,,,,,,NAN,,NAN,,0,129,129,129,1,130,Sam,Rej,Participant_Images/5f9873550513db147c9d2958/5f9873550513db147c9d2958_Images/5f9873550513db147c9d2958_Image_15.jpeg,liked,1.672012706,,,,,,,,,,,,,,
,,,,,,,space,1.524,NAN,,NAN,,0,130,130,130,1,131,Sam,Rej,Participant_Images/5f9873550513db147c9d2958/5f9873550513db147c9d2958_Images/5f9873550513db147c9d2958_Image_25.jpeg,did not like,4.942172136,,,,,,,,,,,,,,
,,,,,,,space,5.444,NAN,,NAN,,0,131,131,131,1,132,Sam,Rej,Participant_Images/5f9873550513db147c9d2958/5f9873550513db147c9d2958_Images/5f9873550513db147c9d2958_Image_6.jpeg,liked,2.50187214,,,,,,,,,,,,,,
,,,,,,,space,0.667,NAN,,NAN,,0,132,132,132,1,133,Sam,Rej,Participant_Images/5f9873550513db147c9d2958/5f9873550513db147c9d2958_Images/5f9873550513db147c9d2958_Image_19.jpeg,did not like,2.071164779,,,,,,,,,,,,,,
,,,,,,,space,0.782,NAN,,NAN,,0,133,133,133,1,134,Sam,Rej,Participant_Images/5f9873550513db147c9d2958/5f9873550513db147c9d2958_Images/5f9873550513db147c9d2958_Image_22.jpeg,did not like,5.336503566,,,,,,,,,,,,,,
,,,,,,,,,,,,,,,,,,,,,,,,s,1,space,1.194,0,0,0,0,1,0.946,h,0.001,,
,,,,,,,,,NAN,,NAN,,0,134,134,134,1,135,Sam,Rej,Participant_Images/5f9873550513db147c9d2958/5f9873550513db147c9d2958_Images/5f9873550513db147c9d2958_Image_1.jpeg,liked,2.642157193,,,,,,,,,,,,,,
,,,,,,,space,1.14,NAN,,NAN,,0,135,135,135,1,136,Sam,Rej,Participant_Images/5f9873550513db147c9d2958/5f9873550513db147c9d2958_Images/5f9873550513db147c9d2958_Image_3.jpeg,liked,4.456234322,,,,,,,,,,,,,,
,,,,,,,space,3.866,NAN,,NAN,,0,136,136,136,1,137,Sam,Rej,Participant_Images/5f9873550513db147c9d2958/5f9873550513db147c9d2958_Images/5f9873550513db147c9d2958_Image_21.jpeg,did not like,4.438512181,,,,,,,,,,,,,,
,,,,,,,space,5.586,NAN,,NAN,,0,137,137,137,1,138,Sam,Rej,Participant_Images/5f9873550513db147c9d2958/5f9873550513db147c9d2958_Images/5f9873550513db147c9d2958_Image_7.jpeg,did not like,2.682944783,,,,,,,,,,,,,,
,,,,,,,space,1.745,NAN,,NAN,,0,138,138,138,1,139,Sam,Rej,Participant_Images/5f9873550513db147c9d2958/5f9873550513db147c9d2958_Images/5f9873550513db147c9d2958_Image_10.jpeg,did not like,4.51984296,,,,,,,,,,,,,,
,,,,,,,,,,,,,,,,,,,,,,,,c,0,space,6.421,0,0,0,0,1,2.007,,,,
,,,,,,,,,NAN,,NAN,,0,139,139,139,1,140,Sam,Rej,Participant_Images/5f9873550513db147c9d2958/5f9873550513db147c9d2958_Images/5f9873550513db147c9d2958_Image_18.jpeg,did not like,3.195382774,,,,,,,,,,,,,,
,,,,,,,space,0.659,NAN,,NAN,,0,140,140,140,1,141,Sam,Rej,Participant_Images/5f9873550513db147c9d2958/5f9873550513db147c9d2958_Images/5f9873550513db147c9d2958_Image_23.jpeg,did not like,1.779333479,,,,,,,,,,,,,,
,,,,,,,space,0.462,NAN,,NAN,,0,141,141,141,1,142,Sam,Rej,Participant_Images/5f9873550513db147c9d2958/5f9873550513db147c9d2958_Images/5f9873550513db147c9d2958_Image_20.jpeg,did not like,4.312468682,,,,,,,,,,,,,,
,,,,,,,space,0.745,NAN,,NAN,,0,142,142,142,1,143,Sam,Rej,Participant_Images/5f9873550513db147c9d2958/5f9873550513db147c9d2958_Images/5f9873550513db147c9d2958_Image_17.jpeg,did not like,4.940433059,,,,,,,,,,,,,,
,,,,,,,space,0.525,NAN,,NAN,,0,143,143,143,1,144,Sam,Rej,Participant_Images/5f9873550513db147c9d2958/5f9873550513db147c9d2958_Images/5f9873550513db147c9d2958_Image_8.jpeg,liked,2.7105123,,,,,,,,,,,,,,
,,,,,,,,,,,,,,,,,,,,,,,,c,0,space,4.237,0,0,0,0,1,2.365,,,,
,,,,,,,,,NAN,,NAN,,0,144,144,144,1,145,Sam,Rej,Participant_Images/5f9873550513db147c9d2958/5f9873550513db147c9d2958_Images/5f9873550513db147c9d2958_Image_11.jpeg,did not like,3.602308302,,,,,,,,,,,,,,
,,,,,,,space,0.644,NAN,,NAN,,0,145,145,145,1,146,Sam,Rej,Participant_Images/5f9873550513db147c9d2958/5f9873550513db147c9d2958_Images/5f9873550513db147c9d2958_Image_26.jpeg,liked,4.106391878,,,,,,,,,,,,,,
,,,,,,,space,2.475,NAN,,NAN,,0,146,146,146,1,147,Sam,Rej,Participant_Images/5f9873550513db147c9d2958/5f9873550513db147c9d2958_Images/5f9873550513db147c9d2958_Image_29.jpeg,liked,3.799433026,,,,,,,,,,,,,,
,,,,,,,space,3.626,NAN,,NAN,,0,147,147,147,1,148,Sam,Rej,Participant_Images/5f9873550513db147c9d2958/5f9873550513db147c9d2958_Images/5f9873550513db147c9d2958_Image_2.jpeg,did not like,5.246980764,,,,,,,,,,,,,,
,,,,,,,space,6.484,NAN,,NAN,,0,148,148,148,1,149,Sam,Rej,Participant_Images/5f9873550513db147c9d2958/5f9873550513db147c9d2958_Images/5f9873550513db147c9d2958_Image_16.jpeg,did not like,3.30081769,,,,,,,,,,,,,,
,,,,,,,,,,,,,,,,,,,,,,,,c,0,space,0.797,0,0,0,0,1,1.295,,,,
,,,,,,,,,2,,5,,0,149,149,149,1,150,Sam,Rej,Participant_Images/5f9873550513db147c9d2958/5f9873550513db147c9d2958_Images/5f9873550513db147c9d2958_Image_30.jpeg,did not like,1.661473164,,,,,,,,,,,,,,
,,,,,,,,,,,,,,,,,,,,,,,,,,,,,,,,,,,,space,2.799