PROLIFIC_ID,endwelcomescreen_keys.keys,endwelcomescreen_keys.rt,endinstructionscreen_keys.keys,endinstructionscreen_keys.rt,endpartnermatch_keys.keys,endpartnermatch_keys.rt,sharenextphoto_key.keys,sharenextphoto_key.rt,salience_rating,key_resp.keys,stress_level,stresslevel_keypress.keys,entiretaskloop.thisRepN,entiretaskloop.thisTrialN,entiretaskloop.thisN,entiretaskloop.thisIndex,entiretaskloop.ran,TrialNumber,Partner,Condition,Photos,Feedback,FeedbackWait,choice_keys.keys,playlottery,resumeafterlottery_keys.keys,resumeafterlottery_keys.rt,lotteryloop.thisRepN,lotteryloop.thisTrialN,lotteryloop.thisN,lotteryloop.thisIndex,lotteryloop.ran,choice_keys.rt,end_screen_keys.keys,end_screen_keys.rt
5ff27bb4ad8fba794c1b96fa,space,1.7204,,,,,,,,,,,,,,,,,,,,,,,,,,,,,,,,,
5ff27bb4ad8fba794c1b96fa,,,,,,,,,,,,,,,,,,,,,,,,,,,,,,,,,,,
5ff27bb4ad8fba794c1b96fa,,,space,1.2484,,,,,,,,,,,,,,,,,,,,,,,,,,,,,,,
5ff27bb4ad8fba794c1b96fa,,,,,space,1.3446,space,2.8924,NAN,,NAN,,0.0,0.0,0.0,0.0,1.0,1.0,Taylor,Acc,Participant_Images/5ff27bb4ad8fba794c1b96fa/5ff27bb4ad8fba794c1b96fa_Images/5ff27bb4ad8fba794c1b96fa_Image_22.jpeg,liked,3.613205605,,,,,,,,,,,,
5ff27bb4ad8fba794c1b96fa,,,,,,,space,0.515,NAN,,NAN,,0.0,1.0,1.0,1.0,1.0,2.0,Taylor,Acc,Participant_Images/5ff27bb4ad8fba794c1b96fa/5ff27bb4ad8fba794c1b96fa_Images/5ff27bb4ad8fba794c1b96fa_Image_16.jpeg,liked,4.988446431,,,,,,,,,,,,
5ff27bb4ad8fba794c1b96fa,,,,,,,space,0.6757,NAN,,NAN,,0.0,2.0,2.0,2.0,1.0,3.0,Taylor,Acc,Participant_Images/5ff27bb4ad8fba794c1b96fa/5ff27bb4ad8fba794c1b96fa_Images/5ff27bb4ad8fba794c1b96fa_Image_7.jpeg,did not like,3.470791822,,,,,,,,,,,,
5ff27bb4ad8fba794c1b96fa,,,,,,,space,0.4689,NAN,,NAN,,0.0,3.0,3.0,3.0,1.0,4.0,Taylor,Acc,Participant_Images/5ff27bb4ad8fba794c1b96fa/5ff27bb4ad8fba794c1b96fa_Images/5ff27bb4ad8fba794c1b96fa_Image_10.jpeg,did not like,3.820572462,,,,,,,,,,,,
5ff27bb4ad8fba794c1b96fa,,,,,,,,,,,,,,,,,,,,,,,,,999.0,space,2.2372,0.0,0.0,0.0,0.0,1.0,,,
5ff27bb4ad8fba794c1b96fa,,,,,,,,,NAN,,NAN,,0.0,4.0,4.0,4.0,1.0,5.0,Taylor,Acc,Participant_Images/5ff27bb4ad8fba794c1b96fa/5ff27bb4ad8fba794c1b96fa_Images/5ff27bb4ad8fba794c1b96fa_Image_28.jpeg,liked,2.455989137,,,,,,,,,,,,
5ff27bb4ad8fba794c1b96fa,,,,,,,space,0.4825,NAN,,NAN,,0.0,5.0,5.0,5.0,1.0,6.0,Taylor,Acc,Participant_Images/5ff27bb4ad8fba794c1b96fa/5ff27bb4ad8fba794c1b96fa_Images/5ff27bb4ad8fba794c1b96fa_Image_19.jpeg,liked,3.79605092,,,,,,,,,,,,
5ff27bb4ad8fba794c1b96fa,,,,,,,space,0.6868,NAN,,NAN,,0.0,6.0,6.0,6.0,1.0,7.0,Taylor,Acc,Participant_Images/5ff27bb4ad8fba794c1b96fa/5ff27bb4ad8fba794c1b96fa_Images/5ff27bb4ad8fba794c1b96fa_Image_21.jpeg,liked,3.562416326,,,,,,,,,,,,
5ff27bb4ad8fba794c1b96fa,,,,,,,space,0.6912,NAN,,NAN,,0.0,7.0,7.0,7.0,1.0,8.0,Taylor,Acc,Participant_Images/5ff27bb4ad8fba794c1b96fa/5ff27bb4ad8fba794c1b96fa_Images/5ff27bb4ad8fba794c1b96fa_Image_27.jpeg,did not like,2.843822497,,,,,,,,,,,,
5ff27bb4ad8fba794c1b96fa,,,,,,,space,0.5557,NAN,,NAN,,0.0,8.0,8.0,8.0,1.0,9.0,Taylor,Acc,Participant_Images/5ff27bb4ad8fba794c1b96fa/5ff27bb4ad8fba794c1b96fa_Images/5ff27bb4ad8fba794c1b96fa_Image_25.jpeg,liked,3.546495948,,,,,,,,,,,,
5ff27bb4ad8fba794c1b96fa,,,,,,,,,,,,,,,,,,,,,,,,c,0.0,space,0.734,0.0,0.0,0.0,0.0,1.0,1.3622,,
5ff27bb4ad8fba794c1b96fa,,,,,,,,,NAN,,NAN,,0.0,9.0,9.0,9.0,1.0,10.0,Taylor,Acc,Participant_Images/5ff27bb4ad8fba794c1b96fa/5ff27bb4ad8fba794c1b96fa_Images/5ff27bb4ad8fba794c1b96fa_Image_20.jpeg,liked,1.672012706,,,,,,,,,,,,
5ff27bb4ad8fba794c1b96fa,,,,,,,space,0.6649,NAN,,NAN,,0.0,10.0,10.0,10.0,1.0,11.0,Taylor,Acc,Participant_Images/5ff27bb4ad8fba794c1b96fa/5ff27bb4ad8fba794c1b96fa_Images/5ff27bb4ad8fba794c1b96fa_Image_18.jpeg,did not like,4.942172136,,,,,,,,,,,,
5ff27bb4ad8fba794c1b96fa,,,,,,,space,0.5845,NAN,,NAN,,0.0,11.0,11.0,11.0,1.0,12.0,Taylor,Acc,Participant_Images/5ff27bb4ad8fba794c1b96fa/5ff27bb4ad8fba794c1b96fa_Images/5ff27bb4ad8fba794c1b96fa_Image_6.jpeg,liked,2.50187214,,,,,,,,,,,,
5ff27bb4ad8fba794c1b96fa,,,,,,,space,0.3884,NAN,,NAN,,0.0,12.0,12.0,12.0,1.0,13.0,Taylor,Acc,Participant_Images/5ff27bb4ad8fba794c1b96fa/5ff27bb4ad8fba794c1b96fa_Images/5ff27bb4ad8fba794c1b96fa_Image_30.jpeg,liked,2.071164779,,,,,,,,,,,,
5ff27bb4ad8fba794c1b96fa,,,,,,,space,0.7063,NAN,,NAN,,0.0,13.0,13.0,13.0,1.0,14.0,Taylor,Acc,Participant_Images/5ff27bb4ad8fba794c1b96fa/5ff27bb4ad8fba794c1b96fa_Images/5ff27bb4ad8fba794c1b96fa_Image_4.jpeg,liked,5.336503566,,,,,,,,,,,,
5ff27bb4ad8fba794c1b96fa,,,,,,,,,,,,,,,,,,,,,,,,c,0.0,space,0.4987,0.0,0.0,0.0,0.0,1.0,1.1754,,
5ff27bb4ad8fba794c1b96fa,,,,,,,,,NAN,,NAN,,0.0,14.0,14.0,14.0,1.0,15.0,Taylor,Acc,Participant_Images/5ff27bb4ad8fba794c1b96fa/5ff27bb4ad8fba794c1b96fa_Images/5ff27bb4ad8fba794c1b96fa_Image_8.jpeg,liked,2.642157193,,,,,,,,,,,,
5ff27bb4ad8fba794c1b96fa,,,,,,,space,0.5837,NAN,,NAN,,0.0,15.0,15.0,15.0,1.0,16.0,Taylor,Acc,Participant_Images/5ff27bb4ad8fba794c1b96fa/5ff27bb4ad8fba794c1b96fa_Images/5ff27bb4ad8fba794c1b96fa_Image_24.jpeg,did not like,4.456234322,,,,,,,,,,,,
5ff27bb4ad8fba794c1b96fa,,,,,,,space,0.5276,NAN,,NAN,,0.0,16.0,16.0,16.0,1.0,17.0,Taylor,Acc,Participant_Images/5ff27bb4ad8fba794c1b96fa/5ff27bb4ad8fba794c1b96fa_Images/5ff27bb4ad8fba794c1b96fa_Image_1.jpeg,liked,4.438512181,,,,,,,,,,,,
5ff27bb4ad8fba794c1b96fa,,,,,,,space,0.6271,NAN,,NAN,,0.0,17.0,17.0,17.0,1.0,18.0,Taylor,Acc,Participant_Images/5ff27bb4ad8fba794c1b96fa/5ff27bb4ad8fba794c1b96fa_Images/5ff27bb4ad8fba794c1b96fa_Image_5.jpeg,liked,2.682944783,,,,,,,,,,,,
5ff27bb4ad8fba794c1b96fa,,,,,,,space,0.4469,NAN,,NAN,,0.0,18.0,18.0,18.0,1.0,19.0,Taylor,Acc,Participant_Images/5ff27bb4ad8fba794c1b96fa/5ff27bb4ad8fba794c1b96fa_Images/5ff27bb4ad8fba794c1b96fa_Image_12.jpeg,did not like,4.51984296,,,,,,,,,,,,
5ff27bb4ad8fba794c1b96fa,,,,,,,,,,,,,,,,,,,,,,,,c,0.0,space,0.3617,0.0,0.0,0.0,0.0,1.0,1.3392,,
5ff27bb4ad8fba794c1b96fa,,,,,,,,,NAN,,NAN,,0.0,19.0,19.0,19.0,1.0,20.0,Taylor,Acc,Participant_Images/5ff27bb4ad8fba794c1b96fa/5ff27bb4ad8fba794c1b96fa_Images/5ff27bb4ad8fba794c1b96fa_Image_3.jpeg,did not like,3.195382774,,,,,,,,,,,,
5ff27bb4ad8fba794c1b96fa,,,,,,,space,0.5193,NAN,,NAN,,0.0,20.0,20.0,20.0,1.0,21.0,Taylor,Acc,Participant_Images/5ff27bb4ad8fba794c1b96fa/5ff27bb4ad8fba794c1b96fa_Images/5ff27bb4ad8fba794c1b96fa_Image_14.jpeg,liked,1.779333479,,,,,,,,,,,,
5ff27bb4ad8fba794c1b96fa,,,,,,,space,0.6557,NAN,,NAN,,0.0,21.0,21.0,21.0,1.0,22.0,Taylor,Acc,Participant_Images/5ff27bb4ad8fba794c1b96fa/5ff27bb4ad8fba794c1b96fa_Images/5ff27bb4ad8fba794c1b96fa_Image_23.jpeg,liked,4.312468682,,,,,,,,,,,,
5ff27bb4ad8fba794c1b96fa,,,,,,,space,0.5396,NAN,,NAN,,0.0,22.0,22.0,22.0,1.0,23.0,Taylor,Acc,Participant_Images/5ff27bb4ad8fba794c1b96fa/5ff27bb4ad8fba794c1b96fa_Images/5ff27bb4ad8fba794c1b96fa_Image_11.jpeg,liked,4.940433059,,,,,,,,,,,,
5ff27bb4ad8fba794c1b96fa,,,,,,,space,0.6701,NAN,,NAN,,0.0,23.0,23.0,23.0,1.0,24.0,Taylor,Acc,Participant_Images/5ff27bb4ad8fba794c1b96fa/5ff27bb4ad8fba794c1b96fa_Images/5ff27bb4ad8fba794c1b96fa_Image_15.jpeg,liked,2.7105123,,,,,,,,,,,,
5ff27bb4ad8fba794c1b96fa,,,,,,,,,,,,,,,,,,,,,,,,c,0.0,space,0.3274,0.0,0.0,0.0,0.0,1.0,2.0903,,
5ff27bb4ad8fba794c1b96fa,,,,,,,,,NAN,,NAN,,0.0,24.0,24.0,24.0,1.0,25.0,Taylor,Acc,Participant_Images/5ff27bb4ad8fba794c1b96fa/5ff27bb4ad8fba794c1b96fa_Images/5ff27bb4ad8fba794c1b96fa_Image_9.jpeg,liked,3.602308302,,,,,,,,,,,,
5ff27bb4ad8fba794c1b96fa,,,,,,,space,0.5683,NAN,,NAN,,0.0,25.0,25.0,25.0,1.0,26.0,Taylor,Acc,Participant_Images/5ff27bb4ad8fba794c1b96fa/5ff27bb4ad8fba794c1b96fa_Images/5ff27bb4ad8fba794c1b96fa_Image_29.jpeg,did not like,4.106391878,,,,,,,,,,,,
5ff27bb4ad8fba794c1b96fa,,,,,,,space,1.0614,NAN,,NAN,,0.0,26.0,26.0,26.0,1.0,27.0,Taylor,Acc,Participant_Images/5ff27bb4ad8fba794c1b96fa/5ff27bb4ad8fba794c1b96fa_Images/5ff27bb4ad8fba794c1b96fa_Image_17.jpeg,liked,3.799433026,,,,,,,,,,,,
5ff27bb4ad8fba794c1b96fa,,,,,,,space,0.3016,NAN,,NAN,,0.0,27.0,27.0,27.0,1.0,28.0,Taylor,Acc,Participant_Images/5ff27bb4ad8fba794c1b96fa/5ff27bb4ad8fba794c1b96fa_Images/5ff27bb4ad8fba794c1b96fa_Image_13.jpeg,liked,5.246980764,,,,,,,,,,,,
5ff27bb4ad8fba794c1b96fa,,,,,,,space,0.6929,NAN,,NAN,,0.0,28.0,28.0,28.0,1.0,29.0,Taylor,Acc,Participant_Images/5ff27bb4ad8fba794c1b96fa/5ff27bb4ad8fba794c1b96fa_Images/5ff27bb4ad8fba794c1b96fa_Image_26.jpeg,liked,3.30081769,,,,,,,,,,,,
5ff27bb4ad8fba794c1b96fa,,,,,,,,,,,,,,,,,,,,,,,,c,0.0,space,0.1909,0.0,0.0,0.0,0.0,1.0,1.2937,,
5ff27bb4ad8fba794c1b96fa,,,,,,,,,3,,5,,0.0,29.0,29.0,29.0,1.0,30.0,Taylor,Acc,Participant_Images/5ff27bb4ad8fba794c1b96fa/5ff27bb4ad8fba794c1b96fa_Images/5ff27bb4ad8fba794c1b96fa_Image_2.jpeg,did not like,1.661473164,,,,,,,,,,,,
5ff27bb4ad8fba794c1b96fa,,,,,space,1.5931,space,0.6083,NAN,,NAN,,0.0,30.0,30.0,30.0,1.0,31.0,Alex,Rej,Participant_Images/5ff27bb4ad8fba794c1b96fa/5ff27bb4ad8fba794c1b96fa_Images/5ff27bb4ad8fba794c1b96fa_Image_9.jpeg,did not like,3.613205605,,,,,,,,,,,,
5ff27bb4ad8fba794c1b96fa,,,,,,,space,0.6817,NAN,,NAN,,0.0,31.0,31.0,31.0,1.0,32.0,Alex,Rej,Participant_Images/5ff27bb4ad8fba794c1b96fa/5ff27bb4ad8fba794c1b96fa_Images/5ff27bb4ad8fba794c1b96fa_Image_25.jpeg,did not like,4.988446431,,,,,,,,,,,,
5ff27bb4ad8fba794c1b96fa,,,,,,,space,0.5443,NAN,,NAN,,0.0,32.0,32.0,32.0,1.0,33.0,Alex,Rej,Participant_Images/5ff27bb4ad8fba794c1b96fa/5ff27bb4ad8fba794c1b96fa_Images/5ff27bb4ad8fba794c1b96fa_Image_13.jpeg,liked,3.470791822,,,,,,,,,,,,
5ff27bb4ad8fba794c1b96fa,,,,,,,space,1.2116,NAN,,NAN,,0.0,33.0,33.0,33.0,1.0,34.0,Alex,Rej,Participant_Images/5ff27bb4ad8fba794c1b96fa/5ff27bb4ad8fba794c1b96fa_Images/5ff27bb4ad8fba794c1b96fa_Image_6.jpeg,liked,3.820572462,,,,,,,,,,,,
5ff27bb4ad8fba794c1b96fa,,,,,,,,,,,,,,,,,,,,,,,,c,0.0,space,0.5248,0.0,0.0,0.0,0.0,1.0,1.3053,,
5ff27bb4ad8fba794c1b96fa,,,,,,,,,NAN,,NAN,,0.0,34.0,34.0,34.0,1.0,35.0,Alex,Rej,Participant_Images/5ff27bb4ad8fba794c1b96fa/5ff27bb4ad8fba794c1b96fa_Images/5ff27bb4ad8fba794c1b96fa_Image_12.jpeg,liked,2.455989137,,,,,,,,,,,,
5ff27bb4ad8fba794c1b96fa,,,,,,,space,0.5598,NAN,,NAN,,0.0,35.0,35.0,35.0,1.0,36.0,Alex,Rej,Participant_Images/5ff27bb4ad8fba794c1b96fa/5ff27bb4ad8fba794c1b96fa_Images/5ff27bb4ad8fba794c1b96fa_Image_5.jpeg,did not like,3.79605092,,,,,,,,,,,,
5ff27bb4ad8fba794c1b96fa,,,,,,,space,0.8016,NAN,,NAN,,0.0,36.0,36.0,36.0,1.0,37.0,Alex,Rej,Participant_Images/5ff27bb4ad8fba794c1b96fa/5ff27bb4ad8fba794c1b96fa_Images/5ff27bb4ad8fba794c1b96fa_Image_26.jpeg,did not like,3.562416326,,,,,,,,,,,,
5ff27bb4ad8fba794c1b96fa,,,,,,,space,0.6143,NAN,,NAN,,0.0,37.0,37.0,37.0,1.0,38.0,Alex,Rej,Participant_Images/5ff27bb4ad8fba794c1b96fa/5ff27bb4ad8fba794c1b96fa_Images/5ff27bb4ad8fba794c1b96fa_Image_19.jpeg,did not like,2.843822497,,,,,,,,,,,,
5ff27bb4ad8fba794c1b96fa,,,,,,,space,0.5266,NAN,,NAN,,0.0,38.0,38.0,38.0,1.0,39.0,Alex,Rej,Participant_Images/5ff27bb4ad8fba794c1b96fa/5ff27bb4ad8fba794c1b96fa_Images/5ff27bb4ad8fba794c1b96fa_Image_17.jpeg,liked,3.546495948,,,,,,,,,,,,
5ff27bb4ad8fba794c1b96fa,,,,,,,,,,,,,,,,,,,,,,,,c,0.0,space,0.5373,0.0,0.0,0.0,0.0,1.0,1.1947,,
5ff27bb4ad8fba794c1b96fa,,,,,,,,,NAN,,NAN,,0.0,39.0,39.0,39.0,1.0,40.0,Alex,Rej,Participant_Images/5ff27bb4ad8fba794c1b96fa/5ff27bb4ad8fba794c1b96fa_Images/5ff27bb4ad8fba794c1b96fa_Image_14.jpeg,did not like,1.672012706,,,,,,,,,,,,
5ff27bb4ad8fba794c1b96fa,,,,,,,space,0.4763,NAN,,NAN,,0.0,40.0,40.0,40.0,1.0,41.0,Alex,Rej,Participant_Images/5ff27bb4ad8fba794c1b96fa/5ff27bb4ad8fba794c1b96fa_Images/5ff27bb4ad8fba794c1b96fa_Image_28.jpeg,did not like,4.942172136,,,,,,,,,,,,
5ff27bb4ad8fba794c1b96fa,,,,,,,space,0.5984,NAN,,NAN,,0.0,41.0,41.0,41.0,1.0,42.0,Alex,Rej,Participant_Images/5ff27bb4ad8fba794c1b96fa/5ff27bb4ad8fba794c1b96fa_Images/5ff27bb4ad8fba794c1b96fa_Image_16.jpeg,did not like,2.50187214,,,,,,,,,,,,
5ff27bb4ad8fba794c1b96fa,,,,,,,space,0.5117,NAN,,NAN,,0.0,42.0,42.0,42.0,1.0,43.0,Alex,Rej,Participant_Images/5ff27bb4ad8fba794c1b96fa/5ff27bb4ad8fba794c1b96fa_Images/5ff27bb4ad8fba794c1b96fa_Image_24.jpeg,did not like,2.071164779,,,,,,,,,,,,
5ff27bb4ad8fba794c1b96fa,,,,,,,space,0.8808,NAN,,NAN,,0.0,43.0,43.0,43.0,1.0,44.0,Alex,Rej,Participant_Images/5ff27bb4ad8fba794c1b96fa/5ff27bb4ad8fba794c1b96fa_Images/5ff27bb4ad8fba794c1b96fa_Image_1.jpeg,did not like,5.336503566,,,,,,,,,,,,
5ff27bb4ad8fba794c1b96fa,,,,,,,,,,,,,,,,,,,,,,,,c,0.0,space,0.5116,0.0,0.0,0.0,0.0,1.0,1.3938,,
5ff27bb4ad8fba794c1b96fa,,,,,,,,,NAN,,NAN,,0.0,44.0,44.0,44.0,1.0,45.0,Alex,Rej,Participant_Images/5ff27bb4ad8fba794c1b96fa/5ff27bb4ad8fba794c1b96fa_Images/5ff27bb4ad8fba794c1b96fa_Image_10.jpeg,did not like,2.642157193,,,,,,,,,,,,
5ff27bb4ad8fba794c1b96fa,,,,,,,space,0.6464,NAN,,NAN,,0.0,45.0,45.0,45.0,1.0,46.0,Alex,Rej,Participant_Images/5ff27bb4ad8fba794c1b96fa/5ff27bb4ad8fba794c1b96fa_Images/5ff27bb4ad8fba794c1b96fa_Image_11.jpeg,did not like,4.456234322,,,,,,,,,,,,
5ff27bb4ad8fba794c1b96fa,,,,,,,space,0.6868,NAN,,NAN,,0.0,46.0,46.0,46.0,1.0,47.0,Alex,Rej,Participant_Images/5ff27bb4ad8fba794c1b96fa/5ff27bb4ad8fba794c1b96fa_Images/5ff27bb4ad8fba794c1b96fa_Image_8.jpeg,did not like,4.438512181,,,,,,,,,,,,
5ff27bb4ad8fba794c1b96fa,,,,,,,space,0.7771,NAN,,NAN,,0.0,47.0,47.0,47.0,1.0,48.0,Alex,Rej,Participant_Images/5ff27bb4ad8fba794c1b96fa/5ff27bb4ad8fba794c1b96fa_Images/5ff27bb4ad8fba794c1b96fa_Image_4.jpeg,liked,2.682944783,,,,,,,,,,,,
5ff27bb4ad8fba794c1b96fa,,,,,,,space,0.7842,NAN,,NAN,,0.0,48.0,48.0,48.0,1.0,49.0,Alex,Rej,Participant_Images/5ff27bb4ad8fba794c1b96fa/5ff27bb4ad8fba794c1b96fa_Images/5ff27bb4ad8fba794c1b96fa_Image_7.jpeg,liked,4.51984296,,,,,,,,,,,,
5ff27bb4ad8fba794c1b96fa,,,,,,,,,,,,,,,,,,,,,,,,c,0.0,space,0.6565,0.0,0.0,0.0,0.0,1.0,1.5392,,
5ff27bb4ad8fba794c1b96fa,,,,,,,,,NAN,,NAN,,0.0,49.0,49.0,49.0,1.0,50.0,Alex,Rej,Participant_Images/5ff27bb4ad8fba794c1b96fa/5ff27bb4ad8fba794c1b96fa_Images/5ff27bb4ad8fba794c1b96fa_Image_18.jpeg,did not like,3.195382774,,,,,,,,,,,,
5ff27bb4ad8fba794c1b96fa,,,,,,,space,0.7746,NAN,,NAN,,0.0,50.0,50.0,50.0,1.0,51.0,Alex,Rej,Participant_Images/5ff27bb4ad8fba794c1b96fa/5ff27bb4ad8fba794c1b96fa_Images/5ff27bb4ad8fba794c1b96fa_Image_23.jpeg,did not like,1.779333479,,,,,,,,,,,,
5ff27bb4ad8fba794c1b96fa,,,,,,,space,0.4541,NAN,,NAN,,0.0,51.0,51.0,51.0,1.0,52.0,Alex,Rej,Participant_Images/5ff27bb4ad8fba794c1b96fa/5ff27bb4ad8fba794c1b96fa_Images/5ff27bb4ad8fba794c1b96fa_Image_30.jpeg,did not like,4.312468682,,,,,,,,,,,,
5ff27bb4ad8fba794c1b96fa,,,,,,,space,0.6447,NAN,,NAN,,0.0,52.0,52.0,52.0,1.0,53.0,Alex,Rej,Participant_Images/5ff27bb4ad8fba794c1b96fa/5ff27bb4ad8fba794c1b96fa_Images/5ff27bb4ad8fba794c1b96fa_Image_21.jpeg,did not like,4.940433059,,,,,,,,,,,,
5ff27bb4ad8fba794c1b96fa,,,,,,,space,0.7786,NAN,,NAN,,0.0,53.0,53.0,53.0,1.0,54.0,Alex,Rej,Participant_Images/5ff27bb4ad8fba794c1b96fa/5ff27bb4ad8fba794c1b96fa_Images/5ff27bb4ad8fba794c1b96fa_Image_20.jpeg,liked,2.7105123,,,,,,,,,,,,
5ff27bb4ad8fba794c1b96fa,,,,,,,,,,,,,,,,,,,,,,,,c,0.0,space,0.698,0.0,0.0,0.0,0.0,1.0,1.3279,,
5ff27bb4ad8fba794c1b96fa,,,,,,,,,NAN,,NAN,,0.0,54.0,54.0,54.0,1.0,55.0,Alex,Rej,Participant_Images/5ff27bb4ad8fba794c1b96fa/5ff27bb4ad8fba794c1b96fa_Images/5ff27bb4ad8fba794c1b96fa_Image_15.jpeg,did not like,3.602308302,,,,,,,,,,,,
5ff27bb4ad8fba794c1b96fa,,,,,,,space,0.8155,NAN,,NAN,,0.0,55.0,55.0,55.0,1.0,56.0,Alex,Rej,Participant_Images/5ff27bb4ad8fba794c1b96fa/5ff27bb4ad8fba794c1b96fa_Images/5ff27bb4ad8fba794c1b96fa_Image_3.jpeg,liked,4.106391878,,,,,,,,,,,,
5ff27bb4ad8fba794c1b96fa,,,,,,,space,0.7733,NAN,,NAN,,0.0,56.0,56.0,56.0,1.0,57.0,Alex,Rej,Participant_Images/5ff27bb4ad8fba794c1b96fa/5ff27bb4ad8fba794c1b96fa_Images/5ff27bb4ad8fba794c1b96fa_Image_29.jpeg,liked,3.799433026,,,,,,,,,,,,
5ff27bb4ad8fba794c1b96fa,,,,,,,space,0.6463,NAN,,NAN,,0.0,57.0,57.0,57.0,1.0,58.0,Alex,Rej,Participant_Images/5ff27bb4ad8fba794c1b96fa/5ff27bb4ad8fba794c1b96fa_Images/5ff27bb4ad8fba794c1b96fa_Image_27.jpeg,did not like,5.246980764,,,,,,,,,,,,
5ff27bb4ad8fba794c1b96fa,,,,,,,space,0.7403,NAN,,NAN,,0.0,58.0,58.0,58.0,1.0,59.0,Alex,Rej,Participant_Images/5ff27bb4ad8fba794c1b96fa/5ff27bb4ad8fba794c1b96fa_Images/5ff27bb4ad8fba794c1b96fa_Image_2.jpeg,did not like,3.30081769,,,,,,,,,,,,
5ff27bb4ad8fba794c1b96fa,,,,,,,,,,,,,,,,,,,,,,,,c,0.0,space,0.5462,0.0,0.0,0.0,0.0,1.0,1.5453,,
5ff27bb4ad8fba794c1b96fa,,,,,,,,,1,,7,,0.0,59.0,59.0,59.0,1.0,60.0,Alex,Rej,Participant_Images/5ff27bb4ad8fba794c1b96fa/5ff27bb4ad8fba794c1b96fa_Images/5ff27bb4ad8fba794c1b96fa_Image_22.jpeg,did not like,1.661473164,,,,,,,,,,,,
5ff27bb4ad8fba794c1b96fa,,,,,space,1.9193,space,0.6776,NAN,,NAN,,0.0,60.0,60.0,60.0,1.0,61.0,Sam,Neutral,Participant_Images/5ff27bb4ad8fba794c1b96fa/5ff27bb4ad8fba794c1b96fa_Images/5ff27bb4ad8fba794c1b96fa_Image_20.jpeg,liked,3.613205605,,,,,,,,,,,,
5ff27bb4ad8fba794c1b96fa,,,,,,,space,0.6865,NAN,,NAN,,0.0,61.0,61.0,61.0,1.0,62.0,Sam,Neutral,Participant_Images/5ff27bb4ad8fba794c1b96fa/5ff27bb4ad8fba794c1b96fa_Images/5ff27bb4ad8fba794c1b96fa_Image_29.jpeg,did not like,4.988446431,,,,,,,,,,,,
5ff27bb4ad8fba794c1b96fa,,,,,,,space,0.7673,NAN,,NAN,,0.0,62.0,62.0,62.0,1.0,63.0,Sam,Neutral,Participant_Images/5ff27bb4ad8fba794c1b96fa/5ff27bb4ad8fba794c1b96fa_Images/5ff27bb4ad8fba794c1b96fa_Image_6.jpeg,liked,3.470791822,,,,,,,,,,,,
5ff27bb4ad8fba794c1b96fa,,,,,,,space,0.3336,NAN,,NAN,,0.0,63.0,63.0,63.0,1.0,64.0,Sam,Neutral,Participant_Images/5ff27bb4ad8fba794c1b96fa/5ff27bb4ad8fba794c1b96fa_Images/5ff27bb4ad8fba794c1b96fa_Image_4.jpeg,did not like,3.820572462,,,,,,,,,,,,
5ff27bb4ad8fba794c1b96fa,,,,,,,,,,,,,,,,,,,,,,,,c,0.0,space,0.4153,0.0,0.0,0.0,0.0,1.0,1.3957,,
5ff27bb4ad8fba794c1b96fa,,,,,,,,,NAN,,NAN,,0.0,64.0,64.0,64.0,1.0,65.0,Sam,Neutral,Participant_Images/5ff27bb4ad8fba794c1b96fa/5ff27bb4ad8fba794c1b96fa_Images/5ff27bb4ad8fba794c1b96fa_Image_16.jpeg,did not like,2.455989137,,,,,,,,,,,,
5ff27bb4ad8fba794c1b96fa,,,,,,,space,0.5554,NAN,,NAN,,0.0,65.0,65.0,65.0,1.0,66.0,Sam,Neutral,Participant_Images/5ff27bb4ad8fba794c1b96fa/5ff27bb4ad8fba794c1b96fa_Images/5ff27bb4ad8fba794c1b96fa_Image_26.jpeg,did not like,3.79605092,,,,,,,,,,,,
5ff27bb4ad8fba794c1b96fa,,,,,,,space,0.9221,NAN,,NAN,,0.0,66.0,66.0,66.0,1.0,67.0,Sam,Neutral,Participant_Images/5ff27bb4ad8fba794c1b96fa/5ff27bb4ad8fba794c1b96fa_Images/5ff27bb4ad8fba794c1b96fa_Image_27.jpeg,liked,3.562416326,,,,,,,,,,,,
5ff27bb4ad8fba794c1b96fa,,,,,,,space,0.6291,NAN,,NAN,,0.0,67.0,67.0,67.0,1.0,68.0,Sam,Neutral,Participant_Images/5ff27bb4ad8fba794c1b96fa/5ff27bb4ad8fba794c1b96fa_Images/5ff27bb4ad8fba794c1b96fa_Image_3.jpeg,liked,2.843822497,,,,,,,,,,,,
5ff27bb4ad8fba794c1b96fa,,,,,,,space,0.8792,NAN,,NAN,,0.0,68.0,68.0,68.0,1.0,69.0,Sam,Neutral,Participant_Images/5ff27bb4ad8fba794c1b96fa/5ff27bb4ad8fba794c1b96fa_Images/5ff27bb4ad8fba794c1b96fa_Image_28.jpeg,did not like,3.546495948,,,,,,,,,,,,
5ff27bb4ad8fba794c1b96fa,,,,,,,,,,,,,,,,,,,,,,,,c,0.0,space,0.5147,0.0,0.0,0.0,0.0,1.0,1.4795,,
5ff27bb4ad8fba794c1b96fa,,,,,,,,,NAN,,NAN,,0.0,69.0,69.0,69.0,1.0,70.0,Sam,Neutral,Participant_Images/5ff27bb4ad8fba794c1b96fa/5ff27bb4ad8fba794c1b96fa_Images/5ff27bb4ad8fba794c1b96fa_Image_5.jpeg,did not like,1.672012706,,,,,,,,,,,,
5ff27bb4ad8fba794c1b96fa,,,,,,,space,0.6361,NAN,,NAN,,0.0,70.0,70.0,70.0,1.0,71.0,Sam,Neutral,Participant_Images/5ff27bb4ad8fba794c1b96fa/5ff27bb4ad8fba794c1b96fa_Images/5ff27bb4ad8fba794c1b96fa_Image_24.jpeg,liked,4.942172136,,,,,,,,,,,,
5ff27bb4ad8fba794c1b96fa,,,,,,,space,0.5487,NAN,,NAN,,0.0,71.0,71.0,71.0,1.0,72.0,Sam,Neutral,Participant_Images/5ff27bb4ad8fba794c1b96fa/5ff27bb4ad8fba794c1b96fa_Images/5ff27bb4ad8fba794c1b96fa_Image_12.jpeg,did not like,2.50187214,,,,,,,,,,,,
5ff27bb4ad8fba794c1b96fa,,,,,,,space,0.5451,NAN,,NAN,,0.0,72.0,72.0,72.0,1.0,73.0,Sam,Neutral,Participant_Images/5ff27bb4ad8fba794c1b96fa/5ff27bb4ad8fba794c1b96fa_Images/5ff27bb4ad8fba794c1b96fa_Image_1.jpeg,liked,2.071164779,,,,,,,,,,,,
5ff27bb4ad8fba794c1b96fa,,,,,,,space,0.5109,NAN,,NAN,,0.0,73.0,73.0,73.0,1.0,74.0,Sam,Neutral,Participant_Images/5ff27bb4ad8fba794c1b96fa/5ff27bb4ad8fba794c1b96fa_Images/5ff27bb4ad8fba794c1b96fa_Image_18.jpeg,did not like,5.336503566,,,,,,,,,,,,
5ff27bb4ad8fba794c1b96fa,,,,,,,,,,,,,,,,,,,,,,,,c,0.0,space,0.4729,0.0,0.0,0.0,0.0,1.0,1.3757,,
5ff27bb4ad8fba794c1b96fa,,,,,,,,,NAN,,NAN,,0.0,74.0,74.0,74.0,1.0,75.0,Sam,Neutral,Participant_Images/5ff27bb4ad8fba794c1b96fa/5ff27bb4ad8fba794c1b96fa_Images/5ff27bb4ad8fba794c1b96fa_Image_30.jpeg,did not like,2.642157193,,,,,,,,,,,,
5ff27bb4ad8fba794c1b96fa,,,,,,,space,0.8138,NAN,,NAN,,0.0,75.0,75.0,75.0,1.0,76.0,Sam,Neutral,Participant_Images/5ff27bb4ad8fba794c1b96fa/5ff27bb4ad8fba794c1b96fa_Images/5ff27bb4ad8fba794c1b96fa_Image_13.jpeg,liked,4.456234322,,,,,,,,,,,,
5ff27bb4ad8fba794c1b96fa,,,,,,,space,1.0611,NAN,,NAN,,0.0,76.0,76.0,76.0,1.0,77.0,Sam,Neutral,Participant_Images/5ff27bb4ad8fba794c1b96fa/5ff27bb4ad8fba794c1b96fa_Images/5ff27bb4ad8fba794c1b96fa_Image_14.jpeg,liked,4.438512181,,,,,,,,,,,,
5ff27bb4ad8fba794c1b96fa,,,,,,,space,0.6422,NAN,,NAN,,0.0,77.0,77.0,77.0,1.0,78.0,Sam,Neutral,Participant_Images/5ff27bb4ad8fba794c1b96fa/5ff27bb4ad8fba794c1b96fa_Images/5ff27bb4ad8fba794c1b96fa_Image_15.jpeg,liked,2.682944783,,,,,,,,,,,,
5ff27bb4ad8fba794c1b96fa,,,,,,,space,0.9833,NAN,,NAN,,0.0,78.0,78.0,78.0,1.0,79.0,Sam,Neutral,Participant_Images/5ff27bb4ad8fba794c1b96fa/5ff27bb4ad8fba794c1b96fa_Images/5ff27bb4ad8fba794c1b96fa_Image_9.jpeg,liked,4.51984296,,,,,,,,,,,,
5ff27bb4ad8fba794c1b96fa,,,,,,,,,,,,,,,,,,,,,,,,c,0.0,space,0.5864,0.0,0.0,0.0,0.0,1.0,0.9632,,
5ff27bb4ad8fba794c1b96fa,,,,,,,,,NAN,,NAN,,0.0,79.0,79.0,79.0,1.0,80.0,Sam,Neutral,Participant_Images/5ff27bb4ad8fba794c1b96fa/5ff27bb4ad8fba794c1b96fa_Images/5ff27bb4ad8fba794c1b96fa_Image_8.jpeg,liked,3.195382774,,,,,,,,,,,,
5ff27bb4ad8fba794c1b96fa,,,,,,,space,0.7514,NAN,,NAN,,0.0,80.0,80.0,80.0,1.0,81.0,Sam,Neutral,Participant_Images/5ff27bb4ad8fba794c1b96fa/5ff27bb4ad8fba794c1b96fa_Images/5ff27bb4ad8fba794c1b96fa_Image_2.jpeg,did not like,1.779333479,,,,,,,,,,,,
5ff27bb4ad8fba794c1b96fa,,,,,,,space,0.6818,NAN,,NAN,,0.0,81.0,81.0,81.0,1.0,82.0,Sam,Neutral,Participant_Images/5ff27bb4ad8fba794c1b96fa/5ff27bb4ad8fba794c1b96fa_Images/5ff27bb4ad8fba794c1b96fa_Image_23.jpeg,liked,4.312468682,,,,,,,,,,,,
5ff27bb4ad8fba794c1b96fa,,,,,,,space,0.7399,NAN,,NAN,,0.0,82.0,82.0,82.0,1.0,83.0,Sam,Neutral,Participant_Images/5ff27bb4ad8fba794c1b96fa/5ff27bb4ad8fba794c1b96fa_Images/5ff27bb4ad8fba794c1b96fa_Image_7.jpeg,liked,4.940433059,,,,,,,,,,,,
5ff27bb4ad8fba794c1b96fa,,,,,,,space,0.8132,NAN,,NAN,,0.0,83.0,83.0,83.0,1.0,84.0,Sam,Neutral,Participant_Images/5ff27bb4ad8fba794c1b96fa/5ff27bb4ad8fba794c1b96fa_Images/5ff27bb4ad8fba794c1b96fa_Image_25.jpeg,did not like,2.7105123,,,,,,,,,,,,
5ff27bb4ad8fba794c1b96fa,,,,,,,,,,,,,,,,,,,,,,,,c,0.0,space,0.4678,0.0,0.0,0.0,0.0,1.0,0.7125,,
5ff27bb4ad8fba794c1b96fa,,,,,,,,,NAN,,NAN,,0.0,84.0,84.0,84.0,1.0,85.0,Sam,Neutral,Participant_Images/5ff27bb4ad8fba794c1b96fa/5ff27bb4ad8fba794c1b96fa_Images/5ff27bb4ad8fba794c1b96fa_Image_17.jpeg,liked,3.602308302,,,,,,,,,,,,
5ff27bb4ad8fba794c1b96fa,,,,,,,space,0.7397,NAN,,NAN,,0.0,85.0,85.0,85.0,1.0,86.0,Sam,Neutral,Participant_Images/5ff27bb4ad8fba794c1b96fa/5ff27bb4ad8fba794c1b96fa_Images/5ff27bb4ad8fba794c1b96fa_Image_19.jpeg,did not like,4.106391878,,,,,,,,,,,,
5ff27bb4ad8fba794c1b96fa,,,,,,,space,0.825,NAN,,NAN,,0.0,86.0,86.0,86.0,1.0,87.0,Sam,Neutral,Participant_Images/5ff27bb4ad8fba794c1b96fa/5ff27bb4ad8fba794c1b96fa_Images/5ff27bb4ad8fba794c1b96fa_Image_21.jpeg,did not like,3.799433026,,,,,,,,,,,,
5ff27bb4ad8fba794c1b96fa,,,,,,,space,0.7426,NAN,,NAN,,0.0,87.0,87.0,87.0,1.0,88.0,Sam,Neutral,Participant_Images/5ff27bb4ad8fba794c1b96fa/5ff27bb4ad8fba794c1b96fa_Images/5ff27bb4ad8fba794c1b96fa_Image_22.jpeg,did not like,5.246980764,,,,,,,,,,,,
5ff27bb4ad8fba794c1b96fa,,,,,,,space,0.6397,NAN,,NAN,,0.0,88.0,88.0,88.0,1.0,89.0,Sam,Neutral,Participant_Images/5ff27bb4ad8fba794c1b96fa/5ff27bb4ad8fba794c1b96fa_Images/5ff27bb4ad8fba794c1b96fa_Image_10.jpeg,did not like,3.30081769,,,,,,,,,,,,
5ff27bb4ad8fba794c1b96fa,,,,,,,,,,,,,,,,,,,,,,,,c,0.0,space,0.4971,0.0,0.0,0.0,0.0,1.0,1.3099,,
5ff27bb4ad8fba794c1b96fa,,,,,,,,,2,,7,,0.0,89.0,89.0,89.0,1.0,90.0,Sam,Neutral,Participant_Images/5ff27bb4ad8fba794c1b96fa/5ff27bb4ad8fba794c1b96fa_Images/5ff27bb4ad8fba794c1b96fa_Image_11.jpeg,liked,1.661473164,,,,,,,,,,,,
5ff27bb4ad8fba794c1b96fa,,,,,space,1.3504,space,0.6594,NAN,,NAN,,0.0,90.0,90.0,90.0,1.0,91.0,Riley,Rej,Participant_Images/5ff27bb4ad8fba794c1b96fa/5ff27bb4ad8fba794c1b96fa_Images/5ff27bb4ad8fba794c1b96fa_Image_13.jpeg,did not like,3.613205605,,,,,,,,,,,,
5ff27bb4ad8fba794c1b96fa,,,,,,,space,0.6676,NAN,,NAN,,0.0,91.0,91.0,91.0,1.0,92.0,Riley,Rej,Participant_Images/5ff27bb4ad8fba794c1b96fa/5ff27bb4ad8fba794c1b96fa_Images/5ff27bb4ad8fba794c1b96fa_Image_21.jpeg,did not like,4.988446431,,,,,,,,,,,,
5ff27bb4ad8fba794c1b96fa,,,,,,,space,0.4871,NAN,,NAN,,0.0,92.0,92.0,92.0,1.0,93.0,Riley,Rej,Participant_Images/5ff27bb4ad8fba794c1b96fa/5ff27bb4ad8fba794c1b96fa_Images/5ff27bb4ad8fba794c1b96fa_Image_28.jpeg,did not like,3.470791822,,,,,,,,,,,,
5ff27bb4ad8fba794c1b96fa,,,,,,,space,0.5786,NAN,,NAN,,0.0,93.0,93.0,93.0,1.0,94.0,Riley,Rej,Participant_Images/5ff27bb4ad8fba794c1b96fa/5ff27bb4ad8fba794c1b96fa_Images/5ff27bb4ad8fba794c1b96fa_Image_15.jpeg,did not like,3.820572462,,,,,,,,,,,,
5ff27bb4ad8fba794c1b96fa,,,,,,,,,,,,,,,,,,,,,,,,c,0.0,space,0.4204,0.0,0.0,0.0,0.0,1.0,0.9827,,
5ff27bb4ad8fba794c1b96fa,,,,,,,,,NAN,,NAN,,0.0,94.0,94.0,94.0,1.0,95.0,Riley,Rej,Participant_Images/5ff27bb4ad8fba794c1b96fa/5ff27bb4ad8fba794c1b96fa_Images/5ff27bb4ad8fba794c1b96fa_Image_23.jpeg,did not like,2.455989137,,,,,,,,,,,,
5ff27bb4ad8fba794c1b96fa,,,,,,,space,0.4545,NAN,,NAN,,0.0,95.0,95.0,95.0,1.0,96.0,Riley,Rej,Participant_Images/5ff27bb4ad8fba794c1b96fa/5ff27bb4ad8fba794c1b96fa_Images/5ff27bb4ad8fba794c1b96fa_Image_12.jpeg,liked,3.79605092,,,,,,,,,,,,
5ff27bb4ad8fba794c1b96fa,,,,,,,space,0.5541,NAN,,NAN,,0.0,96.0,96.0,96.0,1.0,97.0,Riley,Rej,Participant_Images/5ff27bb4ad8fba794c1b96fa/5ff27bb4ad8fba794c1b96fa_Images/5ff27bb4ad8fba794c1b96fa_Image_25.jpeg,did not like,3.562416326,,,,,,,,,,,,
5ff27bb4ad8fba794c1b96fa,,,,,,,space,0.4901,NAN,,NAN,,0.0,97.0,97.0,97.0,1.0,98.0,Riley,Rej,Participant_Images/5ff27bb4ad8fba794c1b96fa/5ff27bb4ad8fba794c1b96fa_Images/5ff27bb4ad8fba794c1b96fa_Image_14.jpeg,liked,2.843822497,,,,,,,,,,,,
5ff27bb4ad8fba794c1b96fa,,,,,,,space,0.5123,NAN,,NAN,,0.0,98.0,98.0,98.0,1.0,99.0,Riley,Rej,Participant_Images/5ff27bb4ad8fba794c1b96fa/5ff27bb4ad8fba794c1b96fa_Images/5ff27bb4ad8fba794c1b96fa_Image_27.jpeg,did not like,3.546495948,,,,,,,,,,,,
5ff27bb4ad8fba794c1b96fa,,,,,,,,,,,,,,,,,,,,,,,,c,0.0,space,0.4658,0.0,0.0,0.0,0.0,1.0,0.7371,,
5ff27bb4ad8fba794c1b96fa,,,,,,,,,NAN,,NAN,,0.0,99.0,99.0,99.0,1.0,100.0,Riley,Rej,Participant_Images/5ff27bb4ad8fba794c1b96fa/5ff27bb4ad8fba794c1b96fa_Images/5ff27bb4ad8fba794c1b96fa_Image_4.jpeg,did not like,1.672012706,,,,,,,,,,,,
5ff27bb4ad8fba794c1b96fa,,,,,,,space,0.4078,NAN,,NAN,,0.0,100.0,100.0,100.0,1.0,101.0,Riley,Rej,Participant_Images/5ff27bb4ad8fba794c1b96fa/5ff27bb4ad8fba794c1b96fa_Images/5ff27bb4ad8fba794c1b96fa_Image_11.jpeg,did not like,4.942172136,,,,,,,,,,,,
5ff27bb4ad8fba794c1b96fa,,,,,,,space,0.5253,NAN,,NAN,,0.0,101.0,101.0,101.0,1.0,102.0,Riley,Rej,Participant_Images/5ff27bb4ad8fba794c1b96fa/5ff27bb4ad8fba794c1b96fa_Images/5ff27bb4ad8fba794c1b96fa_Image_2.jpeg,did not like,2.50187214,,,,,,,,,,,,
5ff27bb4ad8fba794c1b96fa,,,,,,,space,0.5106,NAN,,NAN,,0.0,102.0,102.0,102.0,1.0,103.0,Riley,Rej,Participant_Images/5ff27bb4ad8fba794c1b96fa/5ff27bb4ad8fba794c1b96fa_Images/5ff27bb4ad8fba794c1b96fa_Image_16.jpeg,did not like,2.071164779,,,,,,,,,,,,
5ff27bb4ad8fba794c1b96fa,,,,,,,space,0.6956,NAN,,NAN,,0.0,103.0,103.0,103.0,1.0,104.0,Riley,Rej,Participant_Images/5ff27bb4ad8fba794c1b96fa/5ff27bb4ad8fba794c1b96fa_Images/5ff27bb4ad8fba794c1b96fa_Image_22.jpeg,did not like,5.336503566,,,,,,,,,,,,
5ff27bb4ad8fba794c1b96fa,,,,,,,,,,,,,,,,,,,,,,,,c,0.0,space,0.7546,0.0,0.0,0.0,0.0,1.0,0.8299,,
5ff27bb4ad8fba794c1b96fa,,,,,,,,,NAN,,NAN,,0.0,104.0,104.0,104.0,1.0,105.0,Riley,Rej,Participant_Images/5ff27bb4ad8fba794c1b96fa/5ff27bb4ad8fba794c1b96fa_Images/5ff27bb4ad8fba794c1b96fa_Image_19.jpeg,liked,2.642157193,,,,,,,,,,,,
5ff27bb4ad8fba794c1b96fa,,,,,,,space,0.7594,NAN,,NAN,,0.0,105.0,105.0,105.0,1.0,106.0,Riley,Rej,Participant_Images/5ff27bb4ad8fba794c1b96fa/5ff27bb4ad8fba794c1b96fa_Images/5ff27bb4ad8fba794c1b96fa_Image_18.jpeg,liked,4.456234322,,,,,,,,,,,,
5ff27bb4ad8fba794c1b96fa,,,,,,,space,0.5867,NAN,,NAN,,0.0,106.0,106.0,106.0,1.0,107.0,Riley,Rej,Participant_Images/5ff27bb4ad8fba794c1b96fa/5ff27bb4ad8fba794c1b96fa_Images/5ff27bb4ad8fba794c1b96fa_Image_3.jpeg,liked,4.438512181,,,,,,,,,,,,
5ff27bb4ad8fba794c1b96fa,,,,,,,space,0.7544,NAN,,NAN,,0.0,107.0,107.0,107.0,1.0,108.0,Riley,Rej,Participant_Images/5ff27bb4ad8fba794c1b96fa/5ff27bb4ad8fba794c1b96fa_Images/5ff27bb4ad8fba794c1b96fa_Image_9.jpeg,liked,2.682944783,,,,,,,,,,,,
5ff27bb4ad8fba794c1b96fa,,,,,,,space,0.6285,NAN,,NAN,,0.0,108.0,108.0,108.0,1.0,109.0,Riley,Rej,Participant_Images/5ff27bb4ad8fba794c1b96fa/5ff27bb4ad8fba794c1b96fa_Images/5ff27bb4ad8fba794c1b96fa_Image_8.jpeg,did not like,4.51984296,,,,,,,,,,,,
5ff27bb4ad8fba794c1b96fa,,,,,,,,,,,,,,,,,,,,,,,,c,0.0,space,0.5985,0.0,0.0,0.0,0.0,1.0,0.8288,,
5ff27bb4ad8fba794c1b96fa,,,,,,,,,NAN,,NAN,,0.0,109.0,109.0,109.0,1.0,110.0,Riley,Rej,Participant_Images/5ff27bb4ad8fba794c1b96fa/5ff27bb4ad8fba794c1b96fa_Images/5ff27bb4ad8fba794c1b96fa_Image_26.jpeg,did not like,3.195382774,,,,,,,,,,,,
5ff27bb4ad8fba794c1b96fa,,,,,,,space,0.443,NAN,,NAN,,0.0,110.0,110.0,110.0,1.0,111.0,Riley,Rej,Participant_Images/5ff27bb4ad8fba794c1b96fa/5ff27bb4ad8fba794c1b96fa_Images/5ff27bb4ad8fba794c1b96fa_Image_30.jpeg,liked,1.779333479,,,,,,,,,,,,
5ff27bb4ad8fba794c1b96fa,,,,,,,space,0.7484,NAN,,NAN,,0.0,111.0,111.0,111.0,1.0,112.0,Riley,Rej,Participant_Images/5ff27bb4ad8fba794c1b96fa/5ff27bb4ad8fba794c1b96fa_Images/5ff27bb4ad8fba794c1b96fa_Image_10.jpeg,liked,4.312468682,,,,,,,,,,,,
5ff27bb4ad8fba794c1b96fa,,,,,,,space,0.6377,NAN,,NAN,,0.0,112.0,112.0,112.0,1.0,113.0,Riley,Rej,Participant_Images/5ff27bb4ad8fba794c1b96fa/5ff27bb4ad8fba794c1b96fa_Images/5ff27bb4ad8fba794c1b96fa_Image_5.jpeg,did not like,4.940433059,,,,,,,,,,,,
5ff27bb4ad8fba794c1b96fa,,,,,,,space,0.5858,NAN,,NAN,,0.0,113.0,113.0,113.0,1.0,114.0,Riley,Rej,Participant_Images/5ff27bb4ad8fba794c1b96fa/5ff27bb4ad8fba794c1b96fa_Images/5ff27bb4ad8fba794c1b96fa_Image_1.jpeg,did not like,2.7105123,,,,,,,,,,,,
5ff27bb4ad8fba794c1b96fa,,,,,,,,,,,,,,,,,,,,,,,,c,0.0,space,0.4894,0.0,0.0,0.0,0.0,1.0,0.8592,,
5ff27bb4ad8fba794c1b96fa,,,,,,,,,NAN,,NAN,,0.0,114.0,114.0,114.0,1.0,115.0,Riley,Rej,Participant_Images/5ff27bb4ad8fba794c1b96fa/5ff27bb4ad8fba794c1b96fa_Images/5ff27bb4ad8fba794c1b96fa_Image_20.jpeg,did not like,3.602308302,,,,,,,,,,,,
5ff27bb4ad8fba794c1b96fa,,,,,,,space,0.4651,NAN,,NAN,,0.0,115.0,115.0,115.0,1.0,116.0,Riley,Rej,Participant_Images/5ff27bb4ad8fba794c1b96fa/5ff27bb4ad8fba794c1b96fa_Images/5ff27bb4ad8fba794c1b96fa_Image_24.jpeg,did not like,4.106391878,,,,,,,,,,,,
5ff27bb4ad8fba794c1b96fa,,,,,,,space,0.4322,NAN,,NAN,,0.0,116.0,116.0,116.0,1.0,117.0,Riley,Rej,Participant_Images/5ff27bb4ad8fba794c1b96fa/5ff27bb4ad8fba794c1b96fa_Images/5ff27bb4ad8fba794c1b96fa_Image_7.jpeg,liked,3.799433026,,,,,,,,,,,,
5ff27bb4ad8fba794c1b96fa,,,,,,,space,1.1015,NAN,,NAN,,0.0,117.0,117.0,117.0,1.0,118.0,Riley,Rej,Participant_Images/5ff27bb4ad8fba794c1b96fa/5ff27bb4ad8fba794c1b96fa_Images/5ff27bb4ad8fba794c1b96fa_Image_6.jpeg,did not like,5.246980764,,,,,,,,,,,,
5ff27bb4ad8fba794c1b96fa,,,,,,,space,0.6942,NAN,,NAN,,0.0,118.0,118.0,118.0,1.0,119.0,Riley,Rej,Participant_Images/5ff27bb4ad8fba794c1b96fa/5ff27bb4ad8fba794c1b96fa_Images/5ff27bb4ad8fba794c1b96fa_Image_17.jpeg,did not like,3.30081769,,,,,,,,,,,,
5ff27bb4ad8fba794c1b96fa,,,,,,,,,,,,,,,,,,,,,,,,c,0.0,space,0.618,0.0,0.0,0.0,0.0,1.0,0.8817,,
5ff27bb4ad8fba794c1b96fa,,,,,,,,,2,,7,,0.0,119.0,119.0,119.0,1.0,120.0,Riley,Rej,Participant_Images/5ff27bb4ad8fba794c1b96fa/5ff27bb4ad8fba794c1b96fa_Images/5ff27bb4ad8fba794c1b96fa_Image_29.jpeg,did not like,1.661473164,,,,,,,,,,,,
5ff27bb4ad8fba794c1b96fa,,,,,space,1.6349,space,0.6906,NAN,,NAN,,0.0,120.0,120.0,120.0,1.0,121.0,Charlie,Acc,Participant_Images/5ff27bb4ad8fba794c1b96fa/5ff27bb4ad8fba794c1b96fa_Images/5ff27bb4ad8fba794c1b96fa_Image_3.jpeg,liked,3.613205605,,,,,,,,,,,,
5ff27bb4ad8fba794c1b96fa,,,,,,,space,0.658,NAN,,NAN,,0.0,121.0,121.0,121.0,1.0,122.0,Charlie,Acc,Participant_Images/5ff27bb4ad8fba794c1b96fa/5ff27bb4ad8fba794c1b96fa_Images/5ff27bb4ad8fba794c1b96fa_Image_1.jpeg,did not like,4.988446431,,,,,,,,,,,,
5ff27bb4ad8fba794c1b96fa,,,,,,,space,0.7409,NAN,,NAN,,0.0,122.0,122.0,122.0,1.0,123.0,Charlie,Acc,Participant_Images/5ff27bb4ad8fba794c1b96fa/5ff27bb4ad8fba794c1b96fa_Images/5ff27bb4ad8fba794c1b96fa_Image_22.jpeg,did not like,3.470791822,,,,,,,,,,,,
5ff27bb4ad8fba794c1b96fa,,,,,,,space,0.6521,NAN,,NAN,,0.0,123.0,123.0,123.0,1.0,124.0,Charlie,Acc,Participant_Images/5ff27bb4ad8fba794c1b96fa/5ff27bb4ad8fba794c1b96fa_Images/5ff27bb4ad8fba794c1b96fa_Image_28.jpeg,liked,3.820572462,,,,,,,,,,,,
5ff27bb4ad8fba794c1b96fa,,,,,,,,,,,,,,,,,,,,,,,,c,0.0,space,0.7113,0.0,0.0,0.0,0.0,1.0,0.9207,,
5ff27bb4ad8fba794c1b96fa,,,,,,,,,NAN,,NAN,,0.0,124.0,124.0,124.0,1.0,125.0,Charlie,Acc,Participant_Images/5ff27bb4ad8fba794c1b96fa/5ff27bb4ad8fba794c1b96fa_Images/5ff27bb4ad8fba794c1b96fa_Image_8.jpeg,liked,2.455989137,,,,,,,,,,,,
5ff27bb4ad8fba794c1b96fa,,,,,,,space,0.668,NAN,,NAN,,0.0,125.0,125.0,125.0,1.0,126.0,Charlie,Acc,Participant_Images/5ff27bb4ad8fba794c1b96fa/5ff27bb4ad8fba794c1b96fa_Images/5ff27bb4ad8fba794c1b96fa_Image_17.jpeg,liked,3.79605092,,,,,,,,,,,,
5ff27bb4ad8fba794c1b96fa,,,,,,,space,0.4364,NAN,,NAN,,0.0,126.0,126.0,126.0,1.0,127.0,Charlie,Acc,Participant_Images/5ff27bb4ad8fba794c1b96fa/5ff27bb4ad8fba794c1b96fa_Images/5ff27bb4ad8fba794c1b96fa_Image_5.jpeg,liked,3.562416326,,,,,,,,,,,,
5ff27bb4ad8fba794c1b96fa,,,,,,,space,0.4961,NAN,,NAN,,0.0,127.0,127.0,127.0,1.0,128.0,Charlie,Acc,Participant_Images/5ff27bb4ad8fba794c1b96fa/5ff27bb4ad8fba794c1b96fa_Images/5ff27bb4ad8fba794c1b96fa_Image_7.jpeg,liked,2.843822497,,,,,,,,,,,,
5ff27bb4ad8fba794c1b96fa,,,,,,,space,0.4896,NAN,,NAN,,0.0,128.0,128.0,128.0,1.0,129.0,Charlie,Acc,Participant_Images/5ff27bb4ad8fba794c1b96fa/5ff27bb4ad8fba794c1b96fa_Images/5ff27bb4ad8fba794c1b96fa_Image_12.jpeg,liked,3.546495948,,,,,,,,,,,,
5ff27bb4ad8fba794c1b96fa,,,,,,,,,,,,,,,,,,,,,,,,c,0.0,space,0.9653,0.0,0.0,0.0,0.0,1.0,0.7952,,
5ff27bb4ad8fba794c1b96fa,,,,,,,,,NAN,,NAN,,0.0,129.0,129.0,129.0,1.0,130.0,Charlie,Acc,Participant_Images/5ff27bb4ad8fba794c1b96fa/5ff27bb4ad8fba794c1b96fa_Images/5ff27bb4ad8fba794c1b96fa_Image_19.jpeg,did not like,1.672012706,,,,,,,,,,,,
5ff27bb4ad8fba794c1b96fa,,,,,,,space,0.5339,NAN,,NAN,,0.0,130.0,130.0,130.0,1.0,131.0,Charlie,Acc,Participant_Images/5ff27bb4ad8fba794c1b96fa/5ff27bb4ad8fba794c1b96fa_Images/5ff27bb4ad8fba794c1b96fa_Image_2.jpeg,liked,4.942172136,,,,,,,,,,,,
5ff27bb4ad8fba794c1b96fa,,,,,,,space,0.7458,NAN,,NAN,,0.0,131.0,131.0,131.0,1.0,132.0,Charlie,Acc,Participant_Images/5ff27bb4ad8fba794c1b96fa/5ff27bb4ad8fba794c1b96fa_Images/5ff27bb4ad8fba794c1b96fa_Image_25.jpeg,liked,2.50187214,,,,,,,,,,,,
5ff27bb4ad8fba794c1b96fa,,,,,,,space,0.5133,NAN,,NAN,,0.0,132.0,132.0,132.0,1.0,133.0,Charlie,Acc,Participant_Images/5ff27bb4ad8fba794c1b96fa/5ff27bb4ad8fba794c1b96fa_Images/5ff27bb4ad8fba794c1b96fa_Image_11.jpeg,did not like,2.071164779,,,,,,,,,,,,
5ff27bb4ad8fba794c1b96fa,,,,,,,space,0.5146,NAN,,NAN,,0.0,133.0,133.0,133.0,1.0,134.0,Charlie,Acc,Participant_Images/5ff27bb4ad8fba794c1b96fa/5ff27bb4ad8fba794c1b96fa_Images/5ff27bb4ad8fba794c1b96fa_Image_30.jpeg,liked,5.336503566,,,,,,,,,,,,
5ff27bb4ad8fba794c1b96fa,,,,,,,,,,,,,,,,,,,,,,,,c,0.0,space,0.5601,0.0,0.0,0.0,0.0,1.0,0.6294,,
5ff27bb4ad8fba794c1b96fa,,,,,,,,,NAN,,NAN,,0.0,134.0,134.0,134.0,1.0,135.0,Charlie,Acc,Participant_Images/5ff27bb4ad8fba794c1b96fa/5ff27bb4ad8fba794c1b96fa_Images/5ff27bb4ad8fba794c1b96fa_Image_13.jpeg,liked,2.642157193,,,,,,,,,,,,
5ff27bb4ad8fba794c1b96fa,,,,,,,space,0.6518,NAN,,NAN,,0.0,135.0,135.0,135.0,1.0,136.0,Charlie,Acc,Participant_Images/5ff27bb4ad8fba794c1b96fa/5ff27bb4ad8fba794c1b96fa_Images/5ff27bb4ad8fba794c1b96fa_Image_9.jpeg,liked,4.456234322,,,,,,,,,,,,
5ff27bb4ad8fba794c1b96fa,,,,,,,space,0.6874,NAN,,NAN,,0.0,136.0,136.0,136.0,1.0,137.0,Charlie,Acc,Participant_Images/5ff27bb4ad8fba794c1b96fa/5ff27bb4ad8fba794c1b96fa_Images/5ff27bb4ad8fba794c1b96fa_Image_14.jpeg,liked,4.438512181,,,,,,,,,,,,
5ff27bb4ad8fba794c1b96fa,,,,,,,space,0.753,NAN,,NAN,,0.0,137.0,137.0,137.0,1.0,138.0,Charlie,Acc,Participant_Images/5ff27bb4ad8fba794c1b96fa/5ff27bb4ad8fba794c1b96fa_Images/5ff27bb4ad8fba794c1b96fa_Image_4.jpeg,liked,2.682944783,,,,,,,,,,,,
5ff27bb4ad8fba794c1b96fa,,,,,,,space,0.3095,NAN,,NAN,,0.0,138.0,138.0,138.0,1.0,139.0,Charlie,Acc,Participant_Images/5ff27bb4ad8fba794c1b96fa/5ff27bb4ad8fba794c1b96fa_Images/5ff27bb4ad8fba794c1b96fa_Image_29.jpeg,liked,4.51984296,,,,,,,,,,,,
5ff27bb4ad8fba794c1b96fa,,,,,,,,,,,,,,,,,,,,,,,,c,0.0,space,0.5466,0.0,0.0,0.0,0.0,1.0,0.8031,,
5ff27bb4ad8fba794c1b96fa,,,,,,,,,NAN,,NAN,,0.0,139.0,139.0,139.0,1.0,140.0,Charlie,Acc,Participant_Images/5ff27bb4ad8fba794c1b96fa/5ff27bb4ad8fba794c1b96fa_Images/5ff27bb4ad8fba794c1b96fa_Image_24.jpeg,liked,3.195382774,,,,,,,,,,,,
5ff27bb4ad8fba794c1b96fa,,,,,,,space,1.4597,NAN,,NAN,,0.0,140.0,140.0,140.0,1.0,141.0,Charlie,Acc,Participant_Images/5ff27bb4ad8fba794c1b96fa/5ff27bb4ad8fba794c1b96fa_Images/5ff27bb4ad8fba794c1b96fa_Image_6.jpeg,did not like,1.779333479,,,,,,,,,,,,
5ff27bb4ad8fba794c1b96fa,,,,,,,space,0.3711,NAN,,NAN,,0.0,141.0,141.0,141.0,1.0,142.0,Charlie,Acc,Participant_Images/5ff27bb4ad8fba794c1b96fa/5ff27bb4ad8fba794c1b96fa_Images/5ff27bb4ad8fba794c1b96fa_Image_16.jpeg,liked,4.312468682,,,,,,,,,,,,
5ff27bb4ad8fba794c1b96fa,,,,,,,space,0.5851,NAN,,NAN,,0.0,142.0,142.0,142.0,1.0,143.0,Charlie,Acc,Participant_Images/5ff27bb4ad8fba794c1b96fa/5ff27bb4ad8fba794c1b96fa_Images/5ff27bb4ad8fba794c1b96fa_Image_20.jpeg,liked,4.940433059,,,,,,,,,,,,
5ff27bb4ad8fba794c1b96fa,,,,,,,space,0.5952,NAN,,NAN,,0.0,143.0,143.0,143.0,1.0,144.0,Charlie,Acc,Participant_Images/5ff27bb4ad8fba794c1b96fa/5ff27bb4ad8fba794c1b96fa_Images/5ff27bb4ad8fba794c1b96fa_Image_23.jpeg,did not like,2.7105123,,,,,,,,,,,,
5ff27bb4ad8fba794c1b96fa,,,,,,,,,,,,,,,,,,,,,,,,c,0.0,space,0.4759,0.0,0.0,0.0,0.0,1.0,0.656,,
5ff27bb4ad8fba794c1b96fa,,,,,,,,,NAN,,NAN,,0.0,144.0,144.0,144.0,1.0,145.0,Charlie,Acc,Participant_Images/5ff27bb4ad8fba794c1b96fa/5ff27bb4ad8fba794c1b96fa_Images/5ff27bb4ad8fba794c1b96fa_Image_18.jpeg,liked,3.602308302,,,,,,,,,,,,
5ff27bb4ad8fba794c1b96fa,,,,,,,space,0.5552,NAN,,NAN,,0.0,145.0,145.0,145.0,1.0,146.0,Charlie,Acc,Participant_Images/5ff27bb4ad8fba794c1b96fa/5ff27bb4ad8fba794c1b96fa_Images/5ff27bb4ad8fba794c1b96fa_Image_27.jpeg,did not like,4.106391878,,,,,,,,,,,,
5ff27bb4ad8fba794c1b96fa,,,,,,,space,0.5026,NAN,,NAN,,0.0,146.0,146.0,146.0,1.0,147.0,Charlie,Acc,Participant_Images/5ff27bb4ad8fba794c1b96fa/5ff27bb4ad8fba794c1b96fa_Images/5ff27bb4ad8fba794c1b96fa_Image_15.jpeg,liked,3.799433026,,,,,,,,,,,,
5ff27bb4ad8fba794c1b96fa,,,,,,,space,0.22,NAN,,NAN,,0.0,147.0,147.0,147.0,1.0,148.0,Charlie,Acc,Participant_Images/5ff27bb4ad8fba794c1b96fa/5ff27bb4ad8fba794c1b96fa_Images/5ff27bb4ad8fba794c1b96fa_Image_26.jpeg,did not like,5.246980764,,,,,,,,,,,,
5ff27bb4ad8fba794c1b96fa,,,,,,,space,0.5075,NAN,,NAN,,0.0,148.0,148.0,148.0,1.0,149.0,Charlie,Acc,Participant_Images/5ff27bb4ad8fba794c1b96fa/5ff27bb4ad8fba794c1b96fa_Images/5ff27bb4ad8fba794c1b96fa_Image_21.jpeg,liked,3.30081769,,,,,,,,,,,,
5ff27bb4ad8fba794c1b96fa,,,,,,,,,,,,,,,,,,,,,,,,c,0.0,space,0.4688,0.0,0.0,0.0,0.0,1.0,0.9605,,
5ff27bb4ad8fba794c1b96fa,,,,,,,,,2,,7,,0.0,149.0,149.0,149.0,1.0,150.0,Charlie,Acc,Participant_Images/5ff27bb4ad8fba794c1b96fa/5ff27bb4ad8fba794c1b96fa_Images/5ff27bb4ad8fba794c1b96fa_Image_10.jpeg,did not like,1.661473164,,,,,,,,,,,,
5ff27bb4ad8fba794c1b96fa,,,,,,,,,,,,,,,,,,,,,,,,,,,,,,,,,,space,2.6604
