PROLIFIC_ID,endwelcomescreen_keys.keys,endwelcomescreen_keys.rt,endinstructionscreen_keys.keys,endinstructionscreen_keys.rt,endpartnermatch_keys.keys,endpartnermatch_keys.rt,sharenextphoto_key.keys,sharenextphoto_key.rt,salience_rating,key_resp.keys,stress_level,stresslevel_keypress.keys,entiretaskloop.thisRepN,entiretaskloop.thisTrialN,entiretaskloop.thisN,entiretaskloop.thisIndex,entiretaskloop.ran,TrialNumber,Partner,Condition,Photos,Feedback,FeedbackWait,choice_keys.keys,playlottery,resumeafterlottery_keys.keys,resumeafterlottery_keys.rt,lotteryloop.thisRepN,lotteryloop.thisTrialN,lotteryloop.thisN,lotteryloop.thisIndex,lotteryloop.ran,choice_keys.rt,lotteryguess_keys.keys,lotteryguess_keys.rt,end_screen_keys.keys,end_screen_keys.rt
60bff9298f56d55c8ecd9adf,space,10.3761,,,,,,,,,,,,,,,,,,,,,,,,,,,,,,,,,,,
60bff9298f56d55c8ecd9adf,,,,,,,,,,,,,,,,,,,,,,,,,,,,,,,,,,,,,
60bff9298f56d55c8ecd9adf,,,space,12.7101,,,,,,,,,,,,,,,,,,,,,,,,,,,,,,,,,
60bff9298f56d55c8ecd9adf,,,,,space,2.0155,space,1.0666,NAN,,NAN,,0.0,0.0,0.0,0.0,1.0,1.0,Alex,Acc,Participant_Images/60bff9298f56d55c8ecd9adf/60bff9298f56d55c8ecd9adf_Images/60bff9298f56d55c8ecd9adf_Image_25.jpeg,liked,3.613205605,,,,,,,,,,,,,,
60bff9298f56d55c8ecd9adf,,,,,,,space,1.4257,NAN,,NAN,,0.0,1.0,1.0,1.0,1.0,2.0,Alex,Acc,Participant_Images/60bff9298f56d55c8ecd9adf/60bff9298f56d55c8ecd9adf_Images/60bff9298f56d55c8ecd9adf_Image_28.jpeg,liked,4.988446431,,,,,,,,,,,,,,
60bff9298f56d55c8ecd9adf,,,,,,,space,0.9739,NAN,,NAN,,0.0,2.0,2.0,2.0,1.0,3.0,Alex,Acc,Participant_Images/60bff9298f56d55c8ecd9adf/60bff9298f56d55c8ecd9adf_Images/60bff9298f56d55c8ecd9adf_Image_30.jpeg,did not like,3.470791822,,,,,,,,,,,,,,
60bff9298f56d55c8ecd9adf,,,,,,,space,0.4935,NAN,,NAN,,0.0,3.0,3.0,3.0,1.0,4.0,Alex,Acc,Participant_Images/60bff9298f56d55c8ecd9adf/60bff9298f56d55c8ecd9adf_Images/60bff9298f56d55c8ecd9adf_Image_18.jpeg,liked,3.820572462,,,,,,,,,,,,,,
60bff9298f56d55c8ecd9adf,,,,,,,,,,,,,,,,,,,,,,,,,999.0,space,1.5612,0.0,0.0,0.0,0.0,1.0,,,,,
60bff9298f56d55c8ecd9adf,,,,,,,,,NAN,,NAN,,0.0,4.0,4.0,4.0,1.0,5.0,Alex,Acc,Participant_Images/60bff9298f56d55c8ecd9adf/60bff9298f56d55c8ecd9adf_Images/60bff9298f56d55c8ecd9adf_Image_15.jpeg,liked,2.455989137,,,,,,,,,,,,,,
60bff9298f56d55c8ecd9adf,,,,,,,space,0.772,NAN,,NAN,,0.0,5.0,5.0,5.0,1.0,6.0,Alex,Acc,Participant_Images/60bff9298f56d55c8ecd9adf/60bff9298f56d55c8ecd9adf_Images/60bff9298f56d55c8ecd9adf_Image_20.jpeg,liked,3.79605092,,,,,,,,,,,,,,
60bff9298f56d55c8ecd9adf,,,,,,,space,0.7152,NAN,,NAN,,0.0,6.0,6.0,6.0,1.0,7.0,Alex,Acc,Participant_Images/60bff9298f56d55c8ecd9adf/60bff9298f56d55c8ecd9adf_Images/60bff9298f56d55c8ecd9adf_Image_1.jpeg,liked,3.562416326,,,,,,,,,,,,,,
60bff9298f56d55c8ecd9adf,,,,,,,space,0.6789,NAN,,NAN,,0.0,7.0,7.0,7.0,1.0,8.0,Alex,Acc,Participant_Images/60bff9298f56d55c8ecd9adf/60bff9298f56d55c8ecd9adf_Images/60bff9298f56d55c8ecd9adf_Image_23.jpeg,liked,2.843822497,,,,,,,,,,,,,,
60bff9298f56d55c8ecd9adf,,,,,,,space,0.5207,NAN,,NAN,,0.0,8.0,8.0,8.0,1.0,9.0,Alex,Acc,Participant_Images/60bff9298f56d55c8ecd9adf/60bff9298f56d55c8ecd9adf_Images/60bff9298f56d55c8ecd9adf_Image_11.jpeg,liked,3.546495948,,,,,,,,,,,,,,
60bff9298f56d55c8ecd9adf,,,,,,,,,,,,,,,,,,,,,,,,s,1.0,space,1.1178,0.0,0.0,0.0,0.0,1.0,1.8411,,,,
60bff9298f56d55c8ecd9adf,,,,,,,,,NAN,,NAN,,0.0,9.0,9.0,9.0,1.0,10.0,Alex,Acc,Participant_Images/60bff9298f56d55c8ecd9adf/60bff9298f56d55c8ecd9adf_Images/60bff9298f56d55c8ecd9adf_Image_3.jpeg,did not like,1.672012706,,,,,,,,,,,,,,
60bff9298f56d55c8ecd9adf,,,,,,,space,1.3744,NAN,,NAN,,0.0,10.0,10.0,10.0,1.0,11.0,Alex,Acc,Participant_Images/60bff9298f56d55c8ecd9adf/60bff9298f56d55c8ecd9adf_Images/60bff9298f56d55c8ecd9adf_Image_7.jpeg,did not like,4.942172136,,,,,,,,,,,,,,
60bff9298f56d55c8ecd9adf,,,,,,,space,0.7193,NAN,,NAN,,0.0,11.0,11.0,11.0,1.0,12.0,Alex,Acc,Participant_Images/60bff9298f56d55c8ecd9adf/60bff9298f56d55c8ecd9adf_Images/60bff9298f56d55c8ecd9adf_Image_12.jpeg,liked,2.50187214,,,,,,,,,,,,,,
60bff9298f56d55c8ecd9adf,,,,,,,space,0.5172,NAN,,NAN,,0.0,12.0,12.0,12.0,1.0,13.0,Alex,Acc,Participant_Images/60bff9298f56d55c8ecd9adf/60bff9298f56d55c8ecd9adf_Images/60bff9298f56d55c8ecd9adf_Image_21.jpeg,liked,2.071164779,,,,,,,,,,,,,,
60bff9298f56d55c8ecd9adf,,,,,,,space,0.5742,NAN,,NAN,,0.0,13.0,13.0,13.0,1.0,14.0,Alex,Acc,Participant_Images/60bff9298f56d55c8ecd9adf/60bff9298f56d55c8ecd9adf_Images/60bff9298f56d55c8ecd9adf_Image_14.jpeg,liked,5.336503566,,,,,,,,,,,,,,
60bff9298f56d55c8ecd9adf,,,,,,,,,,,,,,,,,,,,,,,,s,1.0,space,0.9539,0.0,0.0,0.0,0.0,1.0,1.6263,h,2.2444,,
60bff9298f56d55c8ecd9adf,,,,,,,,,NAN,,NAN,,0.0,14.0,14.0,14.0,1.0,15.0,Alex,Acc,Participant_Images/60bff9298f56d55c8ecd9adf/60bff9298f56d55c8ecd9adf_Images/60bff9298f56d55c8ecd9adf_Image_22.jpeg,liked,2.642157193,,,,,,,,,,,,,,
60bff9298f56d55c8ecd9adf,,,,,,,space,0.6477,NAN,,NAN,,0.0,15.0,15.0,15.0,1.0,16.0,Alex,Acc,Participant_Images/60bff9298f56d55c8ecd9adf/60bff9298f56d55c8ecd9adf_Images/60bff9298f56d55c8ecd9adf_Image_8.jpeg,liked,4.456234322,,,,,,,,,,,,,,
60bff9298f56d55c8ecd9adf,,,,,,,space,0.5468,NAN,,NAN,,0.0,16.0,16.0,16.0,1.0,17.0,Alex,Acc,Participant_Images/60bff9298f56d55c8ecd9adf/60bff9298f56d55c8ecd9adf_Images/60bff9298f56d55c8ecd9adf_Image_9.jpeg,liked,4.438512181,,,,,,,,,,,,,,
60bff9298f56d55c8ecd9adf,,,,,,,space,0.46,NAN,,NAN,,0.0,17.0,17.0,17.0,1.0,18.0,Alex,Acc,Participant_Images/60bff9298f56d55c8ecd9adf/60bff9298f56d55c8ecd9adf_Images/60bff9298f56d55c8ecd9adf_Image_27.jpeg,liked,2.682944783,,,,,,,,,,,,,,
60bff9298f56d55c8ecd9adf,,,,,,,space,0.5056,NAN,,NAN,,0.0,18.0,18.0,18.0,1.0,19.0,Alex,Acc,Participant_Images/60bff9298f56d55c8ecd9adf/60bff9298f56d55c8ecd9adf_Images/60bff9298f56d55c8ecd9adf_Image_16.jpeg,did not like,4.51984296,,,,,,,,,,,,,,
60bff9298f56d55c8ecd9adf,,,,,,,,,,,,,,,,,,,,,,,,s,1.0,space,0.6875,0.0,0.0,0.0,0.0,1.0,1.4782,l,0.5497,,
60bff9298f56d55c8ecd9adf,,,,,,,,,NAN,,NAN,,0.0,19.0,19.0,19.0,1.0,20.0,Alex,Acc,Participant_Images/60bff9298f56d55c8ecd9adf/60bff9298f56d55c8ecd9adf_Images/60bff9298f56d55c8ecd9adf_Image_17.jpeg,liked,3.195382774,,,,,,,,,,,,,,
60bff9298f56d55c8ecd9adf,,,,,,,space,0.892,NAN,,NAN,,0.0,20.0,20.0,20.0,1.0,21.0,Alex,Acc,Participant_Images/60bff9298f56d55c8ecd9adf/60bff9298f56d55c8ecd9adf_Images/60bff9298f56d55c8ecd9adf_Image_19.jpeg,liked,1.779333479,,,,,,,,,,,,,,
60bff9298f56d55c8ecd9adf,,,,,,,space,0.5122,NAN,,NAN,,0.0,21.0,21.0,21.0,1.0,22.0,Alex,Acc,Participant_Images/60bff9298f56d55c8ecd9adf/60bff9298f56d55c8ecd9adf_Images/60bff9298f56d55c8ecd9adf_Image_4.jpeg,liked,4.312468682,,,,,,,,,,,,,,
60bff9298f56d55c8ecd9adf,,,,,,,space,0.5274,NAN,,NAN,,0.0,22.0,22.0,22.0,1.0,23.0,Alex,Acc,Participant_Images/60bff9298f56d55c8ecd9adf/60bff9298f56d55c8ecd9adf_Images/60bff9298f56d55c8ecd9adf_Image_29.jpeg,did not like,4.940433059,,,,,,,,,,,,,,
60bff9298f56d55c8ecd9adf,,,,,,,space,0.4886,NAN,,NAN,,0.0,23.0,23.0,23.0,1.0,24.0,Alex,Acc,Participant_Images/60bff9298f56d55c8ecd9adf/60bff9298f56d55c8ecd9adf_Images/60bff9298f56d55c8ecd9adf_Image_6.jpeg,did not like,2.7105123,,,,,,,,,,,,,,
60bff9298f56d55c8ecd9adf,,,,,,,,,,,,,,,,,,,,,,,,s,1.0,space,1.0319,0.0,0.0,0.0,0.0,1.0,1.5378,h,1.8195,,
60bff9298f56d55c8ecd9adf,,,,,,,,,NAN,,NAN,,0.0,24.0,24.0,24.0,1.0,25.0,Alex,Acc,Participant_Images/60bff9298f56d55c8ecd9adf/60bff9298f56d55c8ecd9adf_Images/60bff9298f56d55c8ecd9adf_Image_2.jpeg,liked,3.602308302,,,,,,,,,,,,,,
60bff9298f56d55c8ecd9adf,,,,,,,space,0.6142,NAN,,NAN,,0.0,25.0,25.0,25.0,1.0,26.0,Alex,Acc,Participant_Images/60bff9298f56d55c8ecd9adf/60bff9298f56d55c8ecd9adf_Images/60bff9298f56d55c8ecd9adf_Image_13.jpeg,did not like,4.106391878,,,,,,,,,,,,,,
60bff9298f56d55c8ecd9adf,,,,,,,space,0.4995,NAN,,NAN,,0.0,26.0,26.0,26.0,1.0,27.0,Alex,Acc,Participant_Images/60bff9298f56d55c8ecd9adf/60bff9298f56d55c8ecd9adf_Images/60bff9298f56d55c8ecd9adf_Image_26.jpeg,did not like,3.799433026,,,,,,,,,,,,,,
60bff9298f56d55c8ecd9adf,,,,,,,space,0.5539,NAN,,NAN,,0.0,27.0,27.0,27.0,1.0,28.0,Alex,Acc,Participant_Images/60bff9298f56d55c8ecd9adf/60bff9298f56d55c8ecd9adf_Images/60bff9298f56d55c8ecd9adf_Image_24.jpeg,liked,5.246980764,,,,,,,,,,,,,,
60bff9298f56d55c8ecd9adf,,,,,,,space,0.5852,NAN,,NAN,,0.0,28.0,28.0,28.0,1.0,29.0,Alex,Acc,Participant_Images/60bff9298f56d55c8ecd9adf/60bff9298f56d55c8ecd9adf_Images/60bff9298f56d55c8ecd9adf_Image_10.jpeg,did not like,3.30081769,,,,,,,,,,,,,,
60bff9298f56d55c8ecd9adf,,,,,,,,,,,,,,,,,,,,,,,,c,0.0,space,1.0158,0.0,0.0,0.0,0.0,1.0,1.2894,,,,
60bff9298f56d55c8ecd9adf,,,,,,,,,3,,2,,0.0,29.0,29.0,29.0,1.0,30.0,Alex,Acc,Participant_Images/60bff9298f56d55c8ecd9adf/60bff9298f56d55c8ecd9adf_Images/60bff9298f56d55c8ecd9adf_Image_5.jpeg,liked,1.661473164,,,,,,,,,,,,,,
60bff9298f56d55c8ecd9adf,,,,,space,1.3036,space,0.5699,NAN,,NAN,,0.0,30.0,30.0,30.0,1.0,31.0,Taylor,Rej,Participant_Images/60bff9298f56d55c8ecd9adf/60bff9298f56d55c8ecd9adf_Images/60bff9298f56d55c8ecd9adf_Image_13.jpeg,did not like,3.613205605,,,,,,,,,,,,,,
60bff9298f56d55c8ecd9adf,,,,,,,space,0.5421,NAN,,NAN,,0.0,31.0,31.0,31.0,1.0,32.0,Taylor,Rej,Participant_Images/60bff9298f56d55c8ecd9adf/60bff9298f56d55c8ecd9adf_Images/60bff9298f56d55c8ecd9adf_Image_17.jpeg,liked,4.988446431,,,,,,,,,,,,,,
60bff9298f56d55c8ecd9adf,,,,,,,space,0.6938,NAN,,NAN,,0.0,32.0,32.0,32.0,1.0,33.0,Taylor,Rej,Participant_Images/60bff9298f56d55c8ecd9adf/60bff9298f56d55c8ecd9adf_Images/60bff9298f56d55c8ecd9adf_Image_28.jpeg,did not like,3.470791822,,,,,,,,,,,,,,
60bff9298f56d55c8ecd9adf,,,,,,,space,0.4469,NAN,,NAN,,0.0,33.0,33.0,33.0,1.0,34.0,Taylor,Rej,Participant_Images/60bff9298f56d55c8ecd9adf/60bff9298f56d55c8ecd9adf_Images/60bff9298f56d55c8ecd9adf_Image_3.jpeg,did not like,3.820572462,,,,,,,,,,,,,,
60bff9298f56d55c8ecd9adf,,,,,,,,,,,,,,,,,,,,,,,,s,1.0,space,0.6016,0.0,0.0,0.0,0.0,1.0,1.7765,h,0.7413,,
60bff9298f56d55c8ecd9adf,,,,,,,,,NAN,,NAN,,0.0,34.0,34.0,34.0,1.0,35.0,Taylor,Rej,Participant_Images/60bff9298f56d55c8ecd9adf/60bff9298f56d55c8ecd9adf_Images/60bff9298f56d55c8ecd9adf_Image_11.jpeg,did not like,2.455989137,,,,,,,,,,,,,,
60bff9298f56d55c8ecd9adf,,,,,,,space,0.4856,NAN,,NAN,,0.0,35.0,35.0,35.0,1.0,36.0,Taylor,Rej,Participant_Images/60bff9298f56d55c8ecd9adf/60bff9298f56d55c8ecd9adf_Images/60bff9298f56d55c8ecd9adf_Image_25.jpeg,did not like,3.79605092,,,,,,,,,,,,,,
60bff9298f56d55c8ecd9adf,,,,,,,space,0.4903,NAN,,NAN,,0.0,36.0,36.0,36.0,1.0,37.0,Taylor,Rej,Participant_Images/60bff9298f56d55c8ecd9adf/60bff9298f56d55c8ecd9adf_Images/60bff9298f56d55c8ecd9adf_Image_12.jpeg,did not like,3.562416326,,,,,,,,,,,,,,
60bff9298f56d55c8ecd9adf,,,,,,,space,0.5311,NAN,,NAN,,0.0,37.0,37.0,37.0,1.0,38.0,Taylor,Rej,Participant_Images/60bff9298f56d55c8ecd9adf/60bff9298f56d55c8ecd9adf_Images/60bff9298f56d55c8ecd9adf_Image_24.jpeg,did not like,2.843822497,,,,,,,,,,,,,,
60bff9298f56d55c8ecd9adf,,,,,,,space,0.531,NAN,,NAN,,0.0,38.0,38.0,38.0,1.0,39.0,Taylor,Rej,Participant_Images/60bff9298f56d55c8ecd9adf/60bff9298f56d55c8ecd9adf_Images/60bff9298f56d55c8ecd9adf_Image_2.jpeg,did not like,3.546495948,,,,,,,,,,,,,,
60bff9298f56d55c8ecd9adf,,,,,,,,,,,,,,,,,,,,,,,,c,0.0,space,0.5202,0.0,0.0,0.0,0.0,1.0,1.6936,,,,
60bff9298f56d55c8ecd9adf,,,,,,,,,NAN,,NAN,,0.0,39.0,39.0,39.0,1.0,40.0,Taylor,Rej,Participant_Images/60bff9298f56d55c8ecd9adf/60bff9298f56d55c8ecd9adf_Images/60bff9298f56d55c8ecd9adf_Image_26.jpeg,did not like,1.672012706,,,,,,,,,,,,,,
60bff9298f56d55c8ecd9adf,,,,,,,space,0.6377,NAN,,NAN,,0.0,40.0,40.0,40.0,1.0,41.0,Taylor,Rej,Participant_Images/60bff9298f56d55c8ecd9adf/60bff9298f56d55c8ecd9adf_Images/60bff9298f56d55c8ecd9adf_Image_7.jpeg,liked,4.942172136,,,,,,,,,,,,,,
60bff9298f56d55c8ecd9adf,,,,,,,space,0.6752,NAN,,NAN,,0.0,41.0,41.0,41.0,1.0,42.0,Taylor,Rej,Participant_Images/60bff9298f56d55c8ecd9adf/60bff9298f56d55c8ecd9adf_Images/60bff9298f56d55c8ecd9adf_Image_14.jpeg,did not like,2.50187214,,,,,,,,,,,,,,
60bff9298f56d55c8ecd9adf,,,,,,,space,0.138,NAN,,NAN,,0.0,42.0,42.0,42.0,1.0,43.0,Taylor,Rej,Participant_Images/60bff9298f56d55c8ecd9adf/60bff9298f56d55c8ecd9adf_Images/60bff9298f56d55c8ecd9adf_Image_21.jpeg,did not like,2.071164779,,,,,,,,,,,,,,
60bff9298f56d55c8ecd9adf,,,,,,,space,0.3512,NAN,,NAN,,0.0,43.0,43.0,43.0,1.0,44.0,Taylor,Rej,Participant_Images/60bff9298f56d55c8ecd9adf/60bff9298f56d55c8ecd9adf_Images/60bff9298f56d55c8ecd9adf_Image_16.jpeg,did not like,5.336503566,,,,,,,,,,,,,,
60bff9298f56d55c8ecd9adf,,,,,,,,,,,,,,,,,,,,,,,,c,0.0,space,1.3559,0.0,0.0,0.0,0.0,1.0,1.7953,,,,
60bff9298f56d55c8ecd9adf,,,,,,,,,NAN,,NAN,,0.0,44.0,44.0,44.0,1.0,45.0,Taylor,Rej,Participant_Images/60bff9298f56d55c8ecd9adf/60bff9298f56d55c8ecd9adf_Images/60bff9298f56d55c8ecd9adf_Image_27.jpeg,did not like,2.642157193,,,,,,,,,,,,,,
60bff9298f56d55c8ecd9adf,,,,,,,space,0.6357,NAN,,NAN,,0.0,45.0,45.0,45.0,1.0,46.0,Taylor,Rej,Participant_Images/60bff9298f56d55c8ecd9adf/60bff9298f56d55c8ecd9adf_Images/60bff9298f56d55c8ecd9adf_Image_4.jpeg,liked,4.456234322,,,,,,,,,,,,,,
60bff9298f56d55c8ecd9adf,,,,,,,space,0.5676,NAN,,NAN,,0.0,46.0,46.0,46.0,1.0,47.0,Taylor,Rej,Participant_Images/60bff9298f56d55c8ecd9adf/60bff9298f56d55c8ecd9adf_Images/60bff9298f56d55c8ecd9adf_Image_23.jpeg,did not like,4.438512181,,,,,,,,,,,,,,
60bff9298f56d55c8ecd9adf,,,,,,,space,0.4842,NAN,,NAN,,0.0,47.0,47.0,47.0,1.0,48.0,Taylor,Rej,Participant_Images/60bff9298f56d55c8ecd9adf/60bff9298f56d55c8ecd9adf_Images/60bff9298f56d55c8ecd9adf_Image_30.jpeg,liked,2.682944783,,,,,,,,,,,,,,
60bff9298f56d55c8ecd9adf,,,,,,,space,0.6609,NAN,,NAN,,0.0,48.0,48.0,48.0,1.0,49.0,Taylor,Rej,Participant_Images/60bff9298f56d55c8ecd9adf/60bff9298f56d55c8ecd9adf_Images/60bff9298f56d55c8ecd9adf_Image_22.jpeg,liked,4.51984296,,,,,,,,,,,,,,
60bff9298f56d55c8ecd9adf,,,,,,,,,,,,,,,,,,,,,,,,s,1.0,space,1.001,0.0,0.0,0.0,0.0,1.0,1.8497,l,0.4486,,
60bff9298f56d55c8ecd9adf,,,,,,,,,NAN,,NAN,,0.0,49.0,49.0,49.0,1.0,50.0,Taylor,Rej,Participant_Images/60bff9298f56d55c8ecd9adf/60bff9298f56d55c8ecd9adf_Images/60bff9298f56d55c8ecd9adf_Image_6.jpeg,did not like,3.195382774,,,,,,,,,,,,,,
60bff9298f56d55c8ecd9adf,,,,,,,space,0.5152,NAN,,NAN,,0.0,50.0,50.0,50.0,1.0,51.0,Taylor,Rej,Participant_Images/60bff9298f56d55c8ecd9adf/60bff9298f56d55c8ecd9adf_Images/60bff9298f56d55c8ecd9adf_Image_15.jpeg,did not like,1.779333479,,,,,,,,,,,,,,
60bff9298f56d55c8ecd9adf,,,,,,,space,0.6438,NAN,,NAN,,0.0,51.0,51.0,51.0,1.0,52.0,Taylor,Rej,Participant_Images/60bff9298f56d55c8ecd9adf/60bff9298f56d55c8ecd9adf_Images/60bff9298f56d55c8ecd9adf_Image_5.jpeg,did not like,4.312468682,,,,,,,,,,,,,,
60bff9298f56d55c8ecd9adf,,,,,,,space,0.4913,NAN,,NAN,,0.0,52.0,52.0,52.0,1.0,53.0,Taylor,Rej,Participant_Images/60bff9298f56d55c8ecd9adf/60bff9298f56d55c8ecd9adf_Images/60bff9298f56d55c8ecd9adf_Image_10.jpeg,did not like,4.940433059,,,,,,,,,,,,,,
60bff9298f56d55c8ecd9adf,,,,,,,space,0.8567,NAN,,NAN,,0.0,53.0,53.0,53.0,1.0,54.0,Taylor,Rej,Participant_Images/60bff9298f56d55c8ecd9adf/60bff9298f56d55c8ecd9adf_Images/60bff9298f56d55c8ecd9adf_Image_19.jpeg,did not like,2.7105123,,,,,,,,,,,,,,
60bff9298f56d55c8ecd9adf,,,,,,,,,,,,,,,,,,,,,,,,s,1.0,space,0.4985,0.0,0.0,0.0,0.0,1.0,1.661,h,0.4999,,
60bff9298f56d55c8ecd9adf,,,,,,,,,NAN,,NAN,,0.0,54.0,54.0,54.0,1.0,55.0,Taylor,Rej,Participant_Images/60bff9298f56d55c8ecd9adf/60bff9298f56d55c8ecd9adf_Images/60bff9298f56d55c8ecd9adf_Image_8.jpeg,did not like,3.602308302,,,,,,,,,,,,,,
60bff9298f56d55c8ecd9adf,,,,,,,space,0.5064,NAN,,NAN,,0.0,55.0,55.0,55.0,1.0,56.0,Taylor,Rej,Participant_Images/60bff9298f56d55c8ecd9adf/60bff9298f56d55c8ecd9adf_Images/60bff9298f56d55c8ecd9adf_Image_20.jpeg,liked,4.106391878,,,,,,,,,,,,,,
60bff9298f56d55c8ecd9adf,,,,,,,space,0.5207,NAN,,NAN,,0.0,56.0,56.0,56.0,1.0,57.0,Taylor,Rej,Participant_Images/60bff9298f56d55c8ecd9adf/60bff9298f56d55c8ecd9adf_Images/60bff9298f56d55c8ecd9adf_Image_9.jpeg,liked,3.799433026,,,,,,,,,,,,,,
60bff9298f56d55c8ecd9adf,,,,,,,space,0.5471,NAN,,NAN,,0.0,57.0,57.0,57.0,1.0,58.0,Taylor,Rej,Participant_Images/60bff9298f56d55c8ecd9adf/60bff9298f56d55c8ecd9adf_Images/60bff9298f56d55c8ecd9adf_Image_1.jpeg,liked,5.246980764,,,,,,,,,,,,,,
60bff9298f56d55c8ecd9adf,,,,,,,space,0.545,NAN,,NAN,,0.0,58.0,58.0,58.0,1.0,59.0,Taylor,Rej,Participant_Images/60bff9298f56d55c8ecd9adf/60bff9298f56d55c8ecd9adf_Images/60bff9298f56d55c8ecd9adf_Image_18.jpeg,did not like,3.30081769,,,,,,,,,,,,,,
60bff9298f56d55c8ecd9adf,,,,,,,,,,,,,,,,,,,,,,,,s,1.0,space,0.9264,0.0,0.0,0.0,0.0,1.0,1.7056,l,0.4232,,
60bff9298f56d55c8ecd9adf,,,,,,,,,1,,2,,0.0,59.0,59.0,59.0,1.0,60.0,Taylor,Rej,Participant_Images/60bff9298f56d55c8ecd9adf/60bff9298f56d55c8ecd9adf_Images/60bff9298f56d55c8ecd9adf_Image_29.jpeg,liked,1.661473164,,,,,,,,,,,,,,
60bff9298f56d55c8ecd9adf,,,,,space,1.298,space,0.7066,NAN,,NAN,,0.0,60.0,60.0,60.0,1.0,61.0,Charlie,Acc,Participant_Images/60bff9298f56d55c8ecd9adf/60bff9298f56d55c8ecd9adf_Images/60bff9298f56d55c8ecd9adf_Image_21.jpeg,did not like,3.613205605,,,,,,,,,,,,,,
60bff9298f56d55c8ecd9adf,,,,,,,space,0.426,NAN,,NAN,,0.0,61.0,61.0,61.0,1.0,62.0,Charlie,Acc,Participant_Images/60bff9298f56d55c8ecd9adf/60bff9298f56d55c8ecd9adf_Images/60bff9298f56d55c8ecd9adf_Image_12.jpeg,did not like,4.988446431,,,,,,,,,,,,,,
60bff9298f56d55c8ecd9adf,,,,,,,space,0.4522,NAN,,NAN,,0.0,62.0,62.0,62.0,1.0,63.0,Charlie,Acc,Participant_Images/60bff9298f56d55c8ecd9adf/60bff9298f56d55c8ecd9adf_Images/60bff9298f56d55c8ecd9adf_Image_26.jpeg,liked,3.470791822,,,,,,,,,,,,,,
60bff9298f56d55c8ecd9adf,,,,,,,space,0.5483,NAN,,NAN,,0.0,63.0,63.0,63.0,1.0,64.0,Charlie,Acc,Participant_Images/60bff9298f56d55c8ecd9adf/60bff9298f56d55c8ecd9adf_Images/60bff9298f56d55c8ecd9adf_Image_18.jpeg,liked,3.820572462,,,,,,,,,,,,,,
60bff9298f56d55c8ecd9adf,,,,,,,,,,,,,,,,,,,,,,,,s,1.0,space,0.5644,0.0,0.0,0.0,0.0,1.0,1.4177,l,0.4928,,
60bff9298f56d55c8ecd9adf,,,,,,,,,NAN,,NAN,,0.0,64.0,64.0,64.0,1.0,65.0,Charlie,Acc,Participant_Images/60bff9298f56d55c8ecd9adf/60bff9298f56d55c8ecd9adf_Images/60bff9298f56d55c8ecd9adf_Image_17.jpeg,liked,2.455989137,,,,,,,,,,,,,,
60bff9298f56d55c8ecd9adf,,,,,,,space,0.6103,NAN,,NAN,,0.0,65.0,65.0,65.0,1.0,66.0,Charlie,Acc,Participant_Images/60bff9298f56d55c8ecd9adf/60bff9298f56d55c8ecd9adf_Images/60bff9298f56d55c8ecd9adf_Image_28.jpeg,liked,3.79605092,,,,,,,,,,,,,,
60bff9298f56d55c8ecd9adf,,,,,,,space,0.5737,NAN,,NAN,,0.0,66.0,66.0,66.0,1.0,67.0,Charlie,Acc,Participant_Images/60bff9298f56d55c8ecd9adf/60bff9298f56d55c8ecd9adf_Images/60bff9298f56d55c8ecd9adf_Image_9.jpeg,did not like,3.562416326,,,,,,,,,,,,,,
60bff9298f56d55c8ecd9adf,,,,,,,space,0.4823,NAN,,NAN,,0.0,67.0,67.0,67.0,1.0,68.0,Charlie,Acc,Participant_Images/60bff9298f56d55c8ecd9adf/60bff9298f56d55c8ecd9adf_Images/60bff9298f56d55c8ecd9adf_Image_27.jpeg,liked,2.843822497,,,,,,,,,,,,,,
60bff9298f56d55c8ecd9adf,,,,,,,space,0.6015,NAN,,NAN,,0.0,68.0,68.0,68.0,1.0,69.0,Charlie,Acc,Participant_Images/60bff9298f56d55c8ecd9adf/60bff9298f56d55c8ecd9adf_Images/60bff9298f56d55c8ecd9adf_Image_10.jpeg,liked,3.546495948,,,,,,,,,,,,,,
60bff9298f56d55c8ecd9adf,,,,,,,,,,,,,,,,,,,,,,,,s,1.0,space,0.7592,0.0,0.0,0.0,0.0,1.0,1.3771,h,0.4571,,
60bff9298f56d55c8ecd9adf,,,,,,,,,NAN,,NAN,,0.0,69.0,69.0,69.0,1.0,70.0,Charlie,Acc,Participant_Images/60bff9298f56d55c8ecd9adf/60bff9298f56d55c8ecd9adf_Images/60bff9298f56d55c8ecd9adf_Image_22.jpeg,liked,1.672012706,,,,,,,,,,,,,,
60bff9298f56d55c8ecd9adf,,,,,,,space,0.4819,NAN,,NAN,,0.0,70.0,70.0,70.0,1.0,71.0,Charlie,Acc,Participant_Images/60bff9298f56d55c8ecd9adf/60bff9298f56d55c8ecd9adf_Images/60bff9298f56d55c8ecd9adf_Image_14.jpeg,liked,4.942172136,,,,,,,,,,,,,,
60bff9298f56d55c8ecd9adf,,,,,,,space,0.6156,NAN,,NAN,,0.0,71.0,71.0,71.0,1.0,72.0,Charlie,Acc,Participant_Images/60bff9298f56d55c8ecd9adf/60bff9298f56d55c8ecd9adf_Images/60bff9298f56d55c8ecd9adf_Image_29.jpeg,liked,2.50187214,,,,,,,,,,,,,,
60bff9298f56d55c8ecd9adf,,,,,,,space,0.7075,NAN,,NAN,,0.0,72.0,72.0,72.0,1.0,73.0,Charlie,Acc,Participant_Images/60bff9298f56d55c8ecd9adf/60bff9298f56d55c8ecd9adf_Images/60bff9298f56d55c8ecd9adf_Image_8.jpeg,liked,2.071164779,,,,,,,,,,,,,,
60bff9298f56d55c8ecd9adf,,,,,,,space,0.6946,NAN,,NAN,,0.0,73.0,73.0,73.0,1.0,74.0,Charlie,Acc,Participant_Images/60bff9298f56d55c8ecd9adf/60bff9298f56d55c8ecd9adf_Images/60bff9298f56d55c8ecd9adf_Image_19.jpeg,liked,5.336503566,,,,,,,,,,,,,,
60bff9298f56d55c8ecd9adf,,,,,,,,,,,,,,,,,,,,,,,,c,0.0,space,1.035,0.0,0.0,0.0,0.0,1.0,1.8447,,,,
60bff9298f56d55c8ecd9adf,,,,,,,,,NAN,,NAN,,0.0,74.0,74.0,74.0,1.0,75.0,Charlie,Acc,Participant_Images/60bff9298f56d55c8ecd9adf/60bff9298f56d55c8ecd9adf_Images/60bff9298f56d55c8ecd9adf_Image_16.jpeg,liked,2.642157193,,,,,,,,,,,,,,
60bff9298f56d55c8ecd9adf,,,,,,,space,0.5391,NAN,,NAN,,0.0,75.0,75.0,75.0,1.0,76.0,Charlie,Acc,Participant_Images/60bff9298f56d55c8ecd9adf/60bff9298f56d55c8ecd9adf_Images/60bff9298f56d55c8ecd9adf_Image_15.jpeg,liked,4.456234322,,,,,,,,,,,,,,
60bff9298f56d55c8ecd9adf,,,,,,,space,0.4753,NAN,,NAN,,0.0,76.0,76.0,76.0,1.0,77.0,Charlie,Acc,Participant_Images/60bff9298f56d55c8ecd9adf/60bff9298f56d55c8ecd9adf_Images/60bff9298f56d55c8ecd9adf_Image_7.jpeg,liked,4.438512181,,,,,,,,,,,,,,
60bff9298f56d55c8ecd9adf,,,,,,,space,0.7033,NAN,,NAN,,0.0,77.0,77.0,77.0,1.0,78.0,Charlie,Acc,Participant_Images/60bff9298f56d55c8ecd9adf/60bff9298f56d55c8ecd9adf_Images/60bff9298f56d55c8ecd9adf_Image_20.jpeg,did not like,2.682944783,,,,,,,,,,,,,,
60bff9298f56d55c8ecd9adf,,,,,,,space,0.8465,NAN,,NAN,,0.0,78.0,78.0,78.0,1.0,79.0,Charlie,Acc,Participant_Images/60bff9298f56d55c8ecd9adf/60bff9298f56d55c8ecd9adf_Images/60bff9298f56d55c8ecd9adf_Image_3.jpeg,did not like,4.51984296,,,,,,,,,,,,,,
60bff9298f56d55c8ecd9adf,,,,,,,,,,,,,,,,,,,,,,,,c,0.0,space,0.9014,0.0,0.0,0.0,0.0,1.0,1.8597,,,,
60bff9298f56d55c8ecd9adf,,,,,,,,,NAN,,NAN,,0.0,79.0,79.0,79.0,1.0,80.0,Charlie,Acc,Participant_Images/60bff9298f56d55c8ecd9adf/60bff9298f56d55c8ecd9adf_Images/60bff9298f56d55c8ecd9adf_Image_25.jpeg,liked,3.195382774,,,,,,,,,,,,,,
60bff9298f56d55c8ecd9adf,,,,,,,space,1.2639,NAN,,NAN,,0.0,80.0,80.0,80.0,1.0,81.0,Charlie,Acc,Participant_Images/60bff9298f56d55c8ecd9adf/60bff9298f56d55c8ecd9adf_Images/60bff9298f56d55c8ecd9adf_Image_6.jpeg,liked,1.779333479,,,,,,,,,,,,,,
60bff9298f56d55c8ecd9adf,,,,,,,space,0.9927,NAN,,NAN,,0.0,81.0,81.0,81.0,1.0,82.0,Charlie,Acc,Participant_Images/60bff9298f56d55c8ecd9adf/60bff9298f56d55c8ecd9adf_Images/60bff9298f56d55c8ecd9adf_Image_13.jpeg,did not like,4.312468682,,,,,,,,,,,,,,
60bff9298f56d55c8ecd9adf,,,,,,,space,0.6677,NAN,,NAN,,0.0,82.0,82.0,82.0,1.0,83.0,Charlie,Acc,Participant_Images/60bff9298f56d55c8ecd9adf/60bff9298f56d55c8ecd9adf_Images/60bff9298f56d55c8ecd9adf_Image_30.jpeg,liked,4.940433059,,,,,,,,,,,,,,
60bff9298f56d55c8ecd9adf,,,,,,,space,0.6237,NAN,,NAN,,0.0,83.0,83.0,83.0,1.0,84.0,Charlie,Acc,Participant_Images/60bff9298f56d55c8ecd9adf/60bff9298f56d55c8ecd9adf_Images/60bff9298f56d55c8ecd9adf_Image_23.jpeg,did not like,2.7105123,,,,,,,,,,,,,,
60bff9298f56d55c8ecd9adf,,,,,,,,,,,,,,,,,,,,,,,,s,1.0,space,0.897,0.0,0.0,0.0,0.0,1.0,1.6164,h,0.4538,,
60bff9298f56d55c8ecd9adf,,,,,,,,,NAN,,NAN,,0.0,84.0,84.0,84.0,1.0,85.0,Charlie,Acc,Participant_Images/60bff9298f56d55c8ecd9adf/60bff9298f56d55c8ecd9adf_Images/60bff9298f56d55c8ecd9adf_Image_11.jpeg,liked,3.602308302,,,,,,,,,,,,,,
60bff9298f56d55c8ecd9adf,,,,,,,space,1.1581,NAN,,NAN,,0.0,85.0,85.0,85.0,1.0,86.0,Charlie,Acc,Participant_Images/60bff9298f56d55c8ecd9adf/60bff9298f56d55c8ecd9adf_Images/60bff9298f56d55c8ecd9adf_Image_24.jpeg,liked,4.106391878,,,,,,,,,,,,,,
60bff9298f56d55c8ecd9adf,,,,,,,space,0.7252,NAN,,NAN,,0.0,86.0,86.0,86.0,1.0,87.0,Charlie,Acc,Participant_Images/60bff9298f56d55c8ecd9adf/60bff9298f56d55c8ecd9adf_Images/60bff9298f56d55c8ecd9adf_Image_1.jpeg,did not like,3.799433026,,,,,,,,,,,,,,
60bff9298f56d55c8ecd9adf,,,,,,,space,0.4891,NAN,,NAN,,0.0,87.0,87.0,87.0,1.0,88.0,Charlie,Acc,Participant_Images/60bff9298f56d55c8ecd9adf/60bff9298f56d55c8ecd9adf_Images/60bff9298f56d55c8ecd9adf_Image_4.jpeg,liked,5.246980764,,,,,,,,,,,,,,
60bff9298f56d55c8ecd9adf,,,,,,,space,0.6346,NAN,,NAN,,0.0,88.0,88.0,88.0,1.0,89.0,Charlie,Acc,Participant_Images/60bff9298f56d55c8ecd9adf/60bff9298f56d55c8ecd9adf_Images/60bff9298f56d55c8ecd9adf_Image_2.jpeg,liked,3.30081769,,,,,,,,,,,,,,
60bff9298f56d55c8ecd9adf,,,,,,,,,,,,,,,,,,,,,,,,c,0.0,space,1.2502,0.0,0.0,0.0,0.0,1.0,1.9471,,,,
60bff9298f56d55c8ecd9adf,,,,,,,,,3,,3,,0.0,89.0,89.0,89.0,1.0,90.0,Charlie,Acc,Participant_Images/60bff9298f56d55c8ecd9adf/60bff9298f56d55c8ecd9adf_Images/60bff9298f56d55c8ecd9adf_Image_5.jpeg,did not like,1.661473164,,,,,,,,,,,,,,
60bff9298f56d55c8ecd9adf,,,,,space,1.4915,space,0.78,NAN,,NAN,,0.0,90.0,90.0,90.0,1.0,91.0,Sam,Rej,Participant_Images/60bff9298f56d55c8ecd9adf/60bff9298f56d55c8ecd9adf_Images/60bff9298f56d55c8ecd9adf_Image_7.jpeg,did not like,3.613205605,,,,,,,,,,,,,,
60bff9298f56d55c8ecd9adf,,,,,,,space,0.9001,NAN,,NAN,,0.0,91.0,91.0,91.0,1.0,92.0,Sam,Rej,Participant_Images/60bff9298f56d55c8ecd9adf/60bff9298f56d55c8ecd9adf_Images/60bff9298f56d55c8ecd9adf_Image_27.jpeg,liked,4.988446431,,,,,,,,,,,,,,
60bff9298f56d55c8ecd9adf,,,,,,,space,0.4909,NAN,,NAN,,0.0,92.0,92.0,92.0,1.0,93.0,Sam,Rej,Participant_Images/60bff9298f56d55c8ecd9adf/60bff9298f56d55c8ecd9adf_Images/60bff9298f56d55c8ecd9adf_Image_15.jpeg,did not like,3.470791822,,,,,,,,,,,,,,
60bff9298f56d55c8ecd9adf,,,,,,,space,0.954,NAN,,NAN,,0.0,93.0,93.0,93.0,1.0,94.0,Sam,Rej,Participant_Images/60bff9298f56d55c8ecd9adf/60bff9298f56d55c8ecd9adf_Images/60bff9298f56d55c8ecd9adf_Image_21.jpeg,liked,3.820572462,,,,,,,,,,,,,,
60bff9298f56d55c8ecd9adf,,,,,,,,,,,,,,,,,,,,,,,,s,1.0,space,0.7578,0.0,0.0,0.0,0.0,1.0,1.5649,h,0.9124,,
60bff9298f56d55c8ecd9adf,,,,,,,,,NAN,,NAN,,0.0,94.0,94.0,94.0,1.0,95.0,Sam,Rej,Participant_Images/60bff9298f56d55c8ecd9adf/60bff9298f56d55c8ecd9adf_Images/60bff9298f56d55c8ecd9adf_Image_28.jpeg,liked,2.455989137,,,,,,,,,,,,,,
60bff9298f56d55c8ecd9adf,,,,,,,space,1.0864,NAN,,NAN,,0.0,95.0,95.0,95.0,1.0,96.0,Sam,Rej,Participant_Images/60bff9298f56d55c8ecd9adf/60bff9298f56d55c8ecd9adf_Images/60bff9298f56d55c8ecd9adf_Image_4.jpeg,did not like,3.79605092,,,,,,,,,,,,,,
60bff9298f56d55c8ecd9adf,,,,,,,space,1.0964,NAN,,NAN,,0.0,96.0,96.0,96.0,1.0,97.0,Sam,Rej,Participant_Images/60bff9298f56d55c8ecd9adf/60bff9298f56d55c8ecd9adf_Images/60bff9298f56d55c8ecd9adf_Image_17.jpeg,did not like,3.562416326,,,,,,,,,,,,,,
60bff9298f56d55c8ecd9adf,,,,,,,space,0.7775,NAN,,NAN,,0.0,97.0,97.0,97.0,1.0,98.0,Sam,Rej,Participant_Images/60bff9298f56d55c8ecd9adf/60bff9298f56d55c8ecd9adf_Images/60bff9298f56d55c8ecd9adf_Image_5.jpeg,did not like,2.843822497,,,,,,,,,,,,,,
60bff9298f56d55c8ecd9adf,,,,,,,space,0.8513,NAN,,NAN,,0.0,98.0,98.0,98.0,1.0,99.0,Sam,Rej,Participant_Images/60bff9298f56d55c8ecd9adf/60bff9298f56d55c8ecd9adf_Images/60bff9298f56d55c8ecd9adf_Image_8.jpeg,did not like,3.546495948,,,,,,,,,,,,,,
60bff9298f56d55c8ecd9adf,,,,,,,,,,,,,,,,,,,,,,,,s,1.0,space,0.7908,0.0,0.0,0.0,0.0,1.0,1.4488,l,0.4023,,
60bff9298f56d55c8ecd9adf,,,,,,,,,NAN,,NAN,,0.0,99.0,99.0,99.0,1.0,100.0,Sam,Rej,Participant_Images/60bff9298f56d55c8ecd9adf/60bff9298f56d55c8ecd9adf_Images/60bff9298f56d55c8ecd9adf_Image_18.jpeg,liked,1.672012706,,,,,,,,,,,,,,
60bff9298f56d55c8ecd9adf,,,,,,,space,0.9709,NAN,,NAN,,0.0,100.0,100.0,100.0,1.0,101.0,Sam,Rej,Participant_Images/60bff9298f56d55c8ecd9adf/60bff9298f56d55c8ecd9adf_Images/60bff9298f56d55c8ecd9adf_Image_6.jpeg,did not like,4.942172136,,,,,,,,,,,,,,
60bff9298f56d55c8ecd9adf,,,,,,,space,0.9852,NAN,,NAN,,0.0,101.0,101.0,101.0,1.0,102.0,Sam,Rej,Participant_Images/60bff9298f56d55c8ecd9adf/60bff9298f56d55c8ecd9adf_Images/60bff9298f56d55c8ecd9adf_Image_24.jpeg,did not like,2.50187214,,,,,,,,,,,,,,
60bff9298f56d55c8ecd9adf,,,,,,,space,0.9412,NAN,,NAN,,0.0,102.0,102.0,102.0,1.0,103.0,Sam,Rej,Participant_Images/60bff9298f56d55c8ecd9adf/60bff9298f56d55c8ecd9adf_Images/60bff9298f56d55c8ecd9adf_Image_1.jpeg,did not like,2.071164779,,,,,,,,,,,,,,
60bff9298f56d55c8ecd9adf,,,,,,,space,0.8523,NAN,,NAN,,0.0,103.0,103.0,103.0,1.0,104.0,Sam,Rej,Participant_Images/60bff9298f56d55c8ecd9adf/60bff9298f56d55c8ecd9adf_Images/60bff9298f56d55c8ecd9adf_Image_20.jpeg,did not like,5.336503566,,,,,,,,,,,,,,
60bff9298f56d55c8ecd9adf,,,,,,,,,,,,,,,,,,,,,,,,c,0.0,space,0.9705,0.0,0.0,0.0,0.0,1.0,1.5976,,,,
60bff9298f56d55c8ecd9adf,,,,,,,,,NAN,,NAN,,0.0,104.0,104.0,104.0,1.0,105.0,Sam,Rej,Participant_Images/60bff9298f56d55c8ecd9adf/60bff9298f56d55c8ecd9adf_Images/60bff9298f56d55c8ecd9adf_Image_26.jpeg,did not like,2.642157193,,,,,,,,,,,,,,
60bff9298f56d55c8ecd9adf,,,,,,,space,0.475,NAN,,NAN,,0.0,105.0,105.0,105.0,1.0,106.0,Sam,Rej,Participant_Images/60bff9298f56d55c8ecd9adf/60bff9298f56d55c8ecd9adf_Images/60bff9298f56d55c8ecd9adf_Image_23.jpeg,liked,4.456234322,,,,,,,,,,,,,,
60bff9298f56d55c8ecd9adf,,,,,,,space,1.4291,NAN,,NAN,,0.0,106.0,106.0,106.0,1.0,107.0,Sam,Rej,Participant_Images/60bff9298f56d55c8ecd9adf/60bff9298f56d55c8ecd9adf_Images/60bff9298f56d55c8ecd9adf_Image_14.jpeg,did not like,4.438512181,,,,,,,,,,,,,,
60bff9298f56d55c8ecd9adf,,,,,,,space,1.0323,NAN,,NAN,,0.0,107.0,107.0,107.0,1.0,108.0,Sam,Rej,Participant_Images/60bff9298f56d55c8ecd9adf/60bff9298f56d55c8ecd9adf_Images/60bff9298f56d55c8ecd9adf_Image_2.jpeg,did not like,2.682944783,,,,,,,,,,,,,,
60bff9298f56d55c8ecd9adf,,,,,,,space,0.4623,NAN,,NAN,,0.0,108.0,108.0,108.0,1.0,109.0,Sam,Rej,Participant_Images/60bff9298f56d55c8ecd9adf/60bff9298f56d55c8ecd9adf_Images/60bff9298f56d55c8ecd9adf_Image_16.jpeg,did not like,4.51984296,,,,,,,,,,,,,,
60bff9298f56d55c8ecd9adf,,,,,,,,,,,,,,,,,,,,,,,,c,0.0,space,0.9544,0.0,0.0,0.0,0.0,1.0,1.347,,,,
60bff9298f56d55c8ecd9adf,,,,,,,,,NAN,,NAN,,0.0,109.0,109.0,109.0,1.0,110.0,Sam,Rej,Participant_Images/60bff9298f56d55c8ecd9adf/60bff9298f56d55c8ecd9adf_Images/60bff9298f56d55c8ecd9adf_Image_19.jpeg,liked,3.195382774,,,,,,,,,,,,,,
60bff9298f56d55c8ecd9adf,,,,,,,space,0.5812,NAN,,NAN,,0.0,110.0,110.0,110.0,1.0,111.0,Sam,Rej,Participant_Images/60bff9298f56d55c8ecd9adf/60bff9298f56d55c8ecd9adf_Images/60bff9298f56d55c8ecd9adf_Image_3.jpeg,did not like,1.779333479,,,,,,,,,,,,,,
60bff9298f56d55c8ecd9adf,,,,,,,space,0.6124,NAN,,NAN,,0.0,111.0,111.0,111.0,1.0,112.0,Sam,Rej,Participant_Images/60bff9298f56d55c8ecd9adf/60bff9298f56d55c8ecd9adf_Images/60bff9298f56d55c8ecd9adf_Image_12.jpeg,did not like,4.312468682,,,,,,,,,,,,,,
60bff9298f56d55c8ecd9adf,,,,,,,space,0.6086,NAN,,NAN,,0.0,112.0,112.0,112.0,1.0,113.0,Sam,Rej,Participant_Images/60bff9298f56d55c8ecd9adf/60bff9298f56d55c8ecd9adf_Images/60bff9298f56d55c8ecd9adf_Image_9.jpeg,did not like,4.940433059,,,,,,,,,,,,,,
60bff9298f56d55c8ecd9adf,,,,,,,space,0.5452,NAN,,NAN,,0.0,113.0,113.0,113.0,1.0,114.0,Sam,Rej,Participant_Images/60bff9298f56d55c8ecd9adf/60bff9298f56d55c8ecd9adf_Images/60bff9298f56d55c8ecd9adf_Image_29.jpeg,did not like,2.7105123,,,,,,,,,,,,,,
60bff9298f56d55c8ecd9adf,,,,,,,,,,,,,,,,,,,,,,,,s,1.0,space,0.8203,0.0,0.0,0.0,0.0,1.0,1.4593,l,1.853,,
60bff9298f56d55c8ecd9adf,,,,,,,,,NAN,,NAN,,0.0,114.0,114.0,114.0,1.0,115.0,Sam,Rej,Participant_Images/60bff9298f56d55c8ecd9adf/60bff9298f56d55c8ecd9adf_Images/60bff9298f56d55c8ecd9adf_Image_30.jpeg,liked,3.602308302,,,,,,,,,,,,,,
60bff9298f56d55c8ecd9adf,,,,,,,space,0.8759,NAN,,NAN,,0.0,115.0,115.0,115.0,1.0,116.0,Sam,Rej,Participant_Images/60bff9298f56d55c8ecd9adf/60bff9298f56d55c8ecd9adf_Images/60bff9298f56d55c8ecd9adf_Image_22.jpeg,liked,4.106391878,,,,,,,,,,,,,,
60bff9298f56d55c8ecd9adf,,,,,,,space,0.4375,NAN,,NAN,,0.0,116.0,116.0,116.0,1.0,117.0,Sam,Rej,Participant_Images/60bff9298f56d55c8ecd9adf/60bff9298f56d55c8ecd9adf_Images/60bff9298f56d55c8ecd9adf_Image_25.jpeg,liked,3.799433026,,,,,,,,,,,,,,
60bff9298f56d55c8ecd9adf,,,,,,,space,0.8021,NAN,,NAN,,0.0,117.0,117.0,117.0,1.0,118.0,Sam,Rej,Participant_Images/60bff9298f56d55c8ecd9adf/60bff9298f56d55c8ecd9adf_Images/60bff9298f56d55c8ecd9adf_Image_11.jpeg,did not like,5.246980764,,,,,,,,,,,,,,
60bff9298f56d55c8ecd9adf,,,,,,,space,0.5247,NAN,,NAN,,0.0,118.0,118.0,118.0,1.0,119.0,Sam,Rej,Participant_Images/60bff9298f56d55c8ecd9adf/60bff9298f56d55c8ecd9adf_Images/60bff9298f56d55c8ecd9adf_Image_13.jpeg,did not like,3.30081769,,,,,,,,,,,,,,
60bff9298f56d55c8ecd9adf,,,,,,,,,,,,,,,,,,,,,,,,s,1.0,space,0.6356,0.0,0.0,0.0,0.0,1.0,1.4824,l,0.4531,,
60bff9298f56d55c8ecd9adf,,,,,,,,,2,,3,,0.0,119.0,119.0,119.0,1.0,120.0,Sam,Rej,Participant_Images/60bff9298f56d55c8ecd9adf/60bff9298f56d55c8ecd9adf_Images/60bff9298f56d55c8ecd9adf_Image_10.jpeg,did not like,1.661473164,,,,,,,,,,,,,,
60bff9298f56d55c8ecd9adf,,,,,space,2.3275,space,0.5541,NAN,,NAN,,0.0,120.0,120.0,120.0,1.0,121.0,Riley,Neutral,Participant_Images/60bff9298f56d55c8ecd9adf/60bff9298f56d55c8ecd9adf_Images/60bff9298f56d55c8ecd9adf_Image_2.jpeg,liked,3.613205605,,,,,,,,,,,,,,
60bff9298f56d55c8ecd9adf,,,,,,,space,0.951,NAN,,NAN,,0.0,121.0,121.0,121.0,1.0,122.0,Riley,Neutral,Participant_Images/60bff9298f56d55c8ecd9adf/60bff9298f56d55c8ecd9adf_Images/60bff9298f56d55c8ecd9adf_Image_22.jpeg,did not like,4.988446431,,,,,,,,,,,,,,
60bff9298f56d55c8ecd9adf,,,,,,,space,0.5687,NAN,,NAN,,0.0,122.0,122.0,122.0,1.0,123.0,Riley,Neutral,Participant_Images/60bff9298f56d55c8ecd9adf/60bff9298f56d55c8ecd9adf_Images/60bff9298f56d55c8ecd9adf_Image_10.jpeg,did not like,3.470791822,,,,,,,,,,,,,,
60bff9298f56d55c8ecd9adf,,,,,,,space,0.7699,NAN,,NAN,,0.0,123.0,123.0,123.0,1.0,124.0,Riley,Neutral,Participant_Images/60bff9298f56d55c8ecd9adf/60bff9298f56d55c8ecd9adf_Images/60bff9298f56d55c8ecd9adf_Image_15.jpeg,liked,3.820572462,,,,,,,,,,,,,,
60bff9298f56d55c8ecd9adf,,,,,,,,,,,,,,,,,,,,,,,,s,1.0,space,0.7502,0.0,0.0,0.0,0.0,1.0,1.4953,h,0.4978,,
60bff9298f56d55c8ecd9adf,,,,,,,,,NAN,,NAN,,0.0,124.0,124.0,124.0,1.0,125.0,Riley,Neutral,Participant_Images/60bff9298f56d55c8ecd9adf/60bff9298f56d55c8ecd9adf_Images/60bff9298f56d55c8ecd9adf_Image_11.jpeg,liked,2.455989137,,,,,,,,,,,,,,
60bff9298f56d55c8ecd9adf,,,,,,,space,0.4547,NAN,,NAN,,0.0,125.0,125.0,125.0,1.0,126.0,Riley,Neutral,Participant_Images/60bff9298f56d55c8ecd9adf/60bff9298f56d55c8ecd9adf_Images/60bff9298f56d55c8ecd9adf_Image_7.jpeg,liked,3.79605092,,,,,,,,,,,,,,
60bff9298f56d55c8ecd9adf,,,,,,,space,1.6084,NAN,,NAN,,0.0,126.0,126.0,126.0,1.0,127.0,Riley,Neutral,Participant_Images/60bff9298f56d55c8ecd9adf/60bff9298f56d55c8ecd9adf_Images/60bff9298f56d55c8ecd9adf_Image_1.jpeg,liked,3.562416326,,,,,,,,,,,,,,
60bff9298f56d55c8ecd9adf,,,,,,,space,2.5138,NAN,,NAN,,0.0,127.0,127.0,127.0,1.0,128.0,Riley,Neutral,Participant_Images/60bff9298f56d55c8ecd9adf/60bff9298f56d55c8ecd9adf_Images/60bff9298f56d55c8ecd9adf_Image_30.jpeg,did not like,2.843822497,,,,,,,,,,,,,,
60bff9298f56d55c8ecd9adf,,,,,,,space,0.5091,NAN,,NAN,,0.0,128.0,128.0,128.0,1.0,129.0,Riley,Neutral,Participant_Images/60bff9298f56d55c8ecd9adf/60bff9298f56d55c8ecd9adf_Images/60bff9298f56d55c8ecd9adf_Image_28.jpeg,liked,3.546495948,,,,,,,,,,,,,,
60bff9298f56d55c8ecd9adf,,,,,,,,,,,,,,,,,,,,,,,,s,1.0,space,0.9705,0.0,0.0,0.0,0.0,1.0,1.3369,l,0.5044,,
60bff9298f56d55c8ecd9adf,,,,,,,,,NAN,,NAN,,0.0,129.0,129.0,129.0,1.0,130.0,Riley,Neutral,Participant_Images/60bff9298f56d55c8ecd9adf/60bff9298f56d55c8ecd9adf_Images/60bff9298f56d55c8ecd9adf_Image_29.jpeg,did not like,1.672012706,,,,,,,,,,,,,,
60bff9298f56d55c8ecd9adf,,,,,,,space,2.4311,NAN,,NAN,,0.0,130.0,130.0,130.0,1.0,131.0,Riley,Neutral,Participant_Images/60bff9298f56d55c8ecd9adf/60bff9298f56d55c8ecd9adf_Images/60bff9298f56d55c8ecd9adf_Image_20.jpeg,did not like,4.942172136,,,,,,,,,,,,,,
60bff9298f56d55c8ecd9adf,,,,,,,space,2.9129,NAN,,NAN,,0.0,131.0,131.0,131.0,1.0,132.0,Riley,Neutral,Participant_Images/60bff9298f56d55c8ecd9adf/60bff9298f56d55c8ecd9adf_Images/60bff9298f56d55c8ecd9adf_Image_19.jpeg,liked,2.50187214,,,,,,,,,,,,,,
60bff9298f56d55c8ecd9adf,,,,,,,space,1.5378,NAN,,NAN,,0.0,132.0,132.0,132.0,1.0,133.0,Riley,Neutral,Participant_Images/60bff9298f56d55c8ecd9adf/60bff9298f56d55c8ecd9adf_Images/60bff9298f56d55c8ecd9adf_Image_16.jpeg,liked,2.071164779,,,,,,,,,,,,,,
60bff9298f56d55c8ecd9adf,,,,,,,space,1.2365,NAN,,NAN,,0.0,133.0,133.0,133.0,1.0,134.0,Riley,Neutral,Participant_Images/60bff9298f56d55c8ecd9adf/60bff9298f56d55c8ecd9adf_Images/60bff9298f56d55c8ecd9adf_Image_5.jpeg,did not like,5.336503566,,,,,,,,,,,,,,
60bff9298f56d55c8ecd9adf,,,,,,,,,,,,,,,,,,,,,,,,s,1.0,space,1.0855,0.0,0.0,0.0,0.0,1.0,1.314,h,0.4422,,
60bff9298f56d55c8ecd9adf,,,,,,,,,NAN,,NAN,,0.0,134.0,134.0,134.0,1.0,135.0,Riley,Neutral,Participant_Images/60bff9298f56d55c8ecd9adf/60bff9298f56d55c8ecd9adf_Images/60bff9298f56d55c8ecd9adf_Image_18.jpeg,did not like,2.642157193,,,,,,,,,,,,,,
60bff9298f56d55c8ecd9adf,,,,,,,space,1.2636,NAN,,NAN,,0.0,135.0,135.0,135.0,1.0,136.0,Riley,Neutral,Participant_Images/60bff9298f56d55c8ecd9adf/60bff9298f56d55c8ecd9adf_Images/60bff9298f56d55c8ecd9adf_Image_12.jpeg,did not like,4.456234322,,,,,,,,,,,,,,
60bff9298f56d55c8ecd9adf,,,,,,,space,0.3578,NAN,,NAN,,0.0,136.0,136.0,136.0,1.0,137.0,Riley,Neutral,Participant_Images/60bff9298f56d55c8ecd9adf/60bff9298f56d55c8ecd9adf_Images/60bff9298f56d55c8ecd9adf_Image_21.jpeg,did not like,4.438512181,,,,,,,,,,,,,,
60bff9298f56d55c8ecd9adf,,,,,,,space,0.4761,NAN,,NAN,,0.0,137.0,137.0,137.0,1.0,138.0,Riley,Neutral,Participant_Images/60bff9298f56d55c8ecd9adf/60bff9298f56d55c8ecd9adf_Images/60bff9298f56d55c8ecd9adf_Image_3.jpeg,did not like,2.682944783,,,,,,,,,,,,,,
60bff9298f56d55c8ecd9adf,,,,,,,space,1.6794,NAN,,NAN,,0.0,138.0,138.0,138.0,1.0,139.0,Riley,Neutral,Participant_Images/60bff9298f56d55c8ecd9adf/60bff9298f56d55c8ecd9adf_Images/60bff9298f56d55c8ecd9adf_Image_14.jpeg,liked,4.51984296,,,,,,,,,,,,,,
60bff9298f56d55c8ecd9adf,,,,,,,,,,,,,,,,,,,,,,,,s,1.0,space,0.9041,0.0,0.0,0.0,0.0,1.0,1.8393,l,0.406,,
60bff9298f56d55c8ecd9adf,,,,,,,,,NAN,,NAN,,0.0,139.0,139.0,139.0,1.0,140.0,Riley,Neutral,Participant_Images/60bff9298f56d55c8ecd9adf/60bff9298f56d55c8ecd9adf_Images/60bff9298f56d55c8ecd9adf_Image_25.jpeg,liked,3.195382774,,,,,,,,,,,,,,
60bff9298f56d55c8ecd9adf,,,,,,,space,0.5654,NAN,,NAN,,0.0,140.0,140.0,140.0,1.0,141.0,Riley,Neutral,Participant_Images/60bff9298f56d55c8ecd9adf/60bff9298f56d55c8ecd9adf_Images/60bff9298f56d55c8ecd9adf_Image_4.jpeg,did not like,1.779333479,,,,,,,,,,,,,,
60bff9298f56d55c8ecd9adf,,,,,,,space,0.5733,NAN,,NAN,,0.0,141.0,141.0,141.0,1.0,142.0,Riley,Neutral,Participant_Images/60bff9298f56d55c8ecd9adf/60bff9298f56d55c8ecd9adf_Images/60bff9298f56d55c8ecd9adf_Image_26.jpeg,liked,4.312468682,,,,,,,,,,,,,,
60bff9298f56d55c8ecd9adf,,,,,,,space,1.4614,NAN,,NAN,,0.0,142.0,142.0,142.0,1.0,143.0,Riley,Neutral,Participant_Images/60bff9298f56d55c8ecd9adf/60bff9298f56d55c8ecd9adf_Images/60bff9298f56d55c8ecd9adf_Image_13.jpeg,liked,4.940433059,,,,,,,,,,,,,,
60bff9298f56d55c8ecd9adf,,,,,,,space,0.6071,NAN,,NAN,,0.0,143.0,143.0,143.0,1.0,144.0,Riley,Neutral,Participant_Images/60bff9298f56d55c8ecd9adf/60bff9298f56d55c8ecd9adf_Images/60bff9298f56d55c8ecd9adf_Image_9.jpeg,liked,2.7105123,,,,,,,,,,,,,,
60bff9298f56d55c8ecd9adf,,,,,,,,,,,,,,,,,,,,,,,,s,1.0,space,1.7006,0.0,0.0,0.0,0.0,1.0,1.8856,h,0.5288,,
60bff9298f56d55c8ecd9adf,,,,,,,,,NAN,,NAN,,0.0,144.0,144.0,144.0,1.0,145.0,Riley,Neutral,Participant_Images/60bff9298f56d55c8ecd9adf/60bff9298f56d55c8ecd9adf_Images/60bff9298f56d55c8ecd9adf_Image_23.jpeg,did not like,3.602308302,,,,,,,,,,,,,,
60bff9298f56d55c8ecd9adf,,,,,,,space,0.5585,NAN,,NAN,,0.0,145.0,145.0,145.0,1.0,146.0,Riley,Neutral,Participant_Images/60bff9298f56d55c8ecd9adf/60bff9298f56d55c8ecd9adf_Images/60bff9298f56d55c8ecd9adf_Image_8.jpeg,liked,4.106391878,,,,,,,,,,,,,,
60bff9298f56d55c8ecd9adf,,,,,,,space,0.6433,NAN,,NAN,,0.0,146.0,146.0,146.0,1.0,147.0,Riley,Neutral,Participant_Images/60bff9298f56d55c8ecd9adf/60bff9298f56d55c8ecd9adf_Images/60bff9298f56d55c8ecd9adf_Image_27.jpeg,did not like,3.799433026,,,,,,,,,,,,,,
60bff9298f56d55c8ecd9adf,,,,,,,space,1.8753,NAN,,NAN,,0.0,147.0,147.0,147.0,1.0,148.0,Riley,Neutral,Participant_Images/60bff9298f56d55c8ecd9adf/60bff9298f56d55c8ecd9adf_Images/60bff9298f56d55c8ecd9adf_Image_6.jpeg,did not like,5.246980764,,,,,,,,,,,,,,
60bff9298f56d55c8ecd9adf,,,,,,,space,0.6184,NAN,,NAN,,0.0,148.0,148.0,148.0,1.0,149.0,Riley,Neutral,Participant_Images/60bff9298f56d55c8ecd9adf/60bff9298f56d55c8ecd9adf_Images/60bff9298f56d55c8ecd9adf_Image_24.jpeg,liked,3.30081769,,,,,,,,,,,,,,
60bff9298f56d55c8ecd9adf,,,,,,,,,,,,,,,,,,,,,,,,s,1.0,space,0.7654,0.0,0.0,0.0,0.0,1.0,1.3579,h,1.2887,,
60bff9298f56d55c8ecd9adf,,,,,,,,,1,,3,,0.0,149.0,149.0,149.0,1.0,150.0,Riley,Neutral,Participant_Images/60bff9298f56d55c8ecd9adf/60bff9298f56d55c8ecd9adf_Images/60bff9298f56d55c8ecd9adf_Image_17.jpeg,did not like,1.661473164,,,,,,,,,,,,,,
60bff9298f56d55c8ecd9adf,,,,,,,,,,,,,,,,,,,,,,,,,,,,,,,,,,,,space,3.583
