endwelcomescreen_keys.keys,endwelcomescreen_keys.rt,endinstructionscreen_keys.keys,endinstructionscreen_keys.rt,endpartnermatch_keys.keys,endpartnermatch_keys.rt,sharenextphoto_key.keys,sharenextphoto_key.rt,salience_rating,key_resp.keys,stress_level,stresslevel_keypress.keys,entiretaskloop.thisRepN,entiretaskloop.thisTrialN,entiretaskloop.thisN,entiretaskloop.thisIndex,entiretaskloop.ran,TrialNumber,Partner,Condition,Photos,Feedback,FeedbackWait,choice_keys.keys,playlottery,resumeafterlottery_keys.keys,resumeafterlottery_keys.rt,lotteryloop.thisRepN,lotteryloop.thisTrialN,lotteryloop.thisN,lotteryloop.thisIndex,lotteryloop.ran,choice_keys.rt,end_screen_keys.keys,end_screen_keys.rt
space,8.8753,,,,,,,,,,,,,,,,,,,,,,,,,,,,,,,,,
,,,,,,,,,,,,,,,,,,,,,,,,,,,,,,,,,,
,,space,11.6405,,,,,,,,,,,,,,,,,,,,,,,,,,,,,,,
,,,,space,2.3543,space,1.5584,NAN,,NAN,,0,0,0,0,1,1,Charlie,Rej,Participant_Images/60dbf4d94a3b5564b68881e8/60dbf4d94a3b5564b68881e8_Images/60dbf4d94a3b5564b68881e8_Image_1.jpeg,did not like,3.613205605,,,,,,,,,,,,
,,,,,,space,1.4377,NAN,,NAN,,0,1,1,1,1,2,Charlie,Rej,Participant_Images/60dbf4d94a3b5564b68881e8/60dbf4d94a3b5564b68881e8_Images/60dbf4d94a3b5564b68881e8_Image_9.jpeg,did not like,4.988446431,,,,,,,,,,,,
,,,,,,space,0.495,NAN,,NAN,,0,2,2,2,1,3,Charlie,Rej,Participant_Images/60dbf4d94a3b5564b68881e8/60dbf4d94a3b5564b68881e8_Images/60dbf4d94a3b5564b68881e8_Image_29.jpeg,did not like,3.470791822,,,,,,,,,,,,
,,,,,,space,0.721,NAN,,NAN,,0,3,3,3,1,4,Charlie,Rej,Participant_Images/60dbf4d94a3b5564b68881e8/60dbf4d94a3b5564b68881e8_Images/60dbf4d94a3b5564b68881e8_Image_21.jpeg,liked,3.820572462,,,,,,,,,,,,
,,,,,,,,,,,,,,,,,,,,,,,,999,space,3.1104,0,0,0,0,1,,,
,,,,,,,,NAN,,NAN,,0,4,4,4,1,5,Charlie,Rej,Participant_Images/60dbf4d94a3b5564b68881e8/60dbf4d94a3b5564b68881e8_Images/60dbf4d94a3b5564b68881e8_Image_30.jpeg,did not like,2.455989137,,,,,,,,,,,,
,,,,,,space,0.3429,NAN,,NAN,,0,5,5,5,1,6,Charlie,Rej,Participant_Images/60dbf4d94a3b5564b68881e8/60dbf4d94a3b5564b68881e8_Images/60dbf4d94a3b5564b68881e8_Image_11.jpeg,did not like,3.79605092,,,,,,,,,,,,
,,,,,,space,0.8851,NAN,,NAN,,0,6,6,6,1,7,Charlie,Rej,Participant_Images/60dbf4d94a3b5564b68881e8/60dbf4d94a3b5564b68881e8_Images/60dbf4d94a3b5564b68881e8_Image_10.jpeg,did not like,3.562416326,,,,,,,,,,,,
,,,,,,space,0.6098,NAN,,NAN,,0,7,7,7,1,8,Charlie,Rej,Participant_Images/60dbf4d94a3b5564b68881e8/60dbf4d94a3b5564b68881e8_Images/60dbf4d94a3b5564b68881e8_Image_6.jpeg,did not like,2.843822497,,,,,,,,,,,,
,,,,,,space,0.4439,NAN,,NAN,,0,8,8,8,1,9,Charlie,Rej,Participant_Images/60dbf4d94a3b5564b68881e8/60dbf4d94a3b5564b68881e8_Images/60dbf4d94a3b5564b68881e8_Image_25.jpeg,did not like,3.546495948,,,,,,,,,,,,
,,,,,,,,,,,,,,,,,,,,,,,c,0,space,0.8221,0,0,0,0,1,0.5361,,
,,,,,,,,NAN,,NAN,,0,9,9,9,1,10,Charlie,Rej,Participant_Images/60dbf4d94a3b5564b68881e8/60dbf4d94a3b5564b68881e8_Images/60dbf4d94a3b5564b68881e8_Image_4.jpeg,liked,1.672012706,,,,,,,,,,,,
,,,,,,space,0.8413,NAN,,NAN,,0,10,10,10,1,11,Charlie,Rej,Participant_Images/60dbf4d94a3b5564b68881e8/60dbf4d94a3b5564b68881e8_Images/60dbf4d94a3b5564b68881e8_Image_7.jpeg,did not like,4.942172136,,,,,,,,,,,,
,,,,,,space,0.4944,NAN,,NAN,,0,11,11,11,1,12,Charlie,Rej,Participant_Images/60dbf4d94a3b5564b68881e8/60dbf4d94a3b5564b68881e8_Images/60dbf4d94a3b5564b68881e8_Image_19.jpeg,liked,2.50187214,,,,,,,,,,,,
,,,,,,space,0.3849,NAN,,NAN,,0,12,12,12,1,13,Charlie,Rej,Participant_Images/60dbf4d94a3b5564b68881e8/60dbf4d94a3b5564b68881e8_Images/60dbf4d94a3b5564b68881e8_Image_22.jpeg,did not like,2.071164779,,,,,,,,,,,,
,,,,,,space,0.5681,NAN,,NAN,,0,13,13,13,1,14,Charlie,Rej,Participant_Images/60dbf4d94a3b5564b68881e8/60dbf4d94a3b5564b68881e8_Images/60dbf4d94a3b5564b68881e8_Image_28.jpeg,did not like,5.336503566,,,,,,,,,,,,
,,,,,,,,,,,,,,,,,,,,,,,c,0,space,0.869,0,0,0,0,1,1.1904,,
,,,,,,,,NAN,,NAN,,0,14,14,14,1,15,Charlie,Rej,Participant_Images/60dbf4d94a3b5564b68881e8/60dbf4d94a3b5564b68881e8_Images/60dbf4d94a3b5564b68881e8_Image_5.jpeg,did not like,2.642157193,,,,,,,,,,,,
,,,,,,space,0.6792,NAN,,NAN,,0,15,15,15,1,16,Charlie,Rej,Participant_Images/60dbf4d94a3b5564b68881e8/60dbf4d94a3b5564b68881e8_Images/60dbf4d94a3b5564b68881e8_Image_24.jpeg,did not like,4.456234322,,,,,,,,,,,,
,,,,,,space,0.3171,NAN,,NAN,,0,16,16,16,1,17,Charlie,Rej,Participant_Images/60dbf4d94a3b5564b68881e8/60dbf4d94a3b5564b68881e8_Images/60dbf4d94a3b5564b68881e8_Image_27.jpeg,did not like,4.438512181,,,,,,,,,,,,
,,,,,,space,0.3327,NAN,,NAN,,0,17,17,17,1,18,Charlie,Rej,Participant_Images/60dbf4d94a3b5564b68881e8/60dbf4d94a3b5564b68881e8_Images/60dbf4d94a3b5564b68881e8_Image_18.jpeg,did not like,2.682944783,,,,,,,,,,,,
,,,,,,space,0.3246,NAN,,NAN,,0,18,18,18,1,19,Charlie,Rej,Participant_Images/60dbf4d94a3b5564b68881e8/60dbf4d94a3b5564b68881e8_Images/60dbf4d94a3b5564b68881e8_Image_23.jpeg,did not like,4.51984296,,,,,,,,,,,,
,,,,,,,,,,,,,,,,,,,,,,,c,0,space,0.6175,0,0,0,0,1,0.4059,,
,,,,,,,,NAN,,NAN,,0,19,19,19,1,20,Charlie,Rej,Participant_Images/60dbf4d94a3b5564b68881e8/60dbf4d94a3b5564b68881e8_Images/60dbf4d94a3b5564b68881e8_Image_26.jpeg,liked,3.195382774,,,,,,,,,,,,
,,,,,,space,0.7322,NAN,,NAN,,0,20,20,20,1,21,Charlie,Rej,Participant_Images/60dbf4d94a3b5564b68881e8/60dbf4d94a3b5564b68881e8_Images/60dbf4d94a3b5564b68881e8_Image_12.jpeg,did not like,1.779333479,,,,,,,,,,,,
,,,,,,space,0.483,NAN,,NAN,,0,21,21,21,1,22,Charlie,Rej,Participant_Images/60dbf4d94a3b5564b68881e8/60dbf4d94a3b5564b68881e8_Images/60dbf4d94a3b5564b68881e8_Image_20.jpeg,liked,4.312468682,,,,,,,,,,,,
,,,,,,space,0.5899,NAN,,NAN,,0,22,22,22,1,23,Charlie,Rej,Participant_Images/60dbf4d94a3b5564b68881e8/60dbf4d94a3b5564b68881e8_Images/60dbf4d94a3b5564b68881e8_Image_8.jpeg,did not like,4.940433059,,,,,,,,,,,,
,,,,,,space,0.5097,NAN,,NAN,,0,23,23,23,1,24,Charlie,Rej,Participant_Images/60dbf4d94a3b5564b68881e8/60dbf4d94a3b5564b68881e8_Images/60dbf4d94a3b5564b68881e8_Image_2.jpeg,liked,2.7105123,,,,,,,,,,,,
,,,,,,,,,,,,,,,,,,,,,,,c,0,space,0.8419,0,0,0,0,1,0.7248,,
,,,,,,,,NAN,,NAN,,0,24,24,24,1,25,Charlie,Rej,Participant_Images/60dbf4d94a3b5564b68881e8/60dbf4d94a3b5564b68881e8_Images/60dbf4d94a3b5564b68881e8_Image_15.jpeg,did not like,3.602308302,,,,,,,,,,,,
,,,,,,space,0.4898,NAN,,NAN,,0,25,25,25,1,26,Charlie,Rej,Participant_Images/60dbf4d94a3b5564b68881e8/60dbf4d94a3b5564b68881e8_Images/60dbf4d94a3b5564b68881e8_Image_17.jpeg,did not like,4.106391878,,,,,,,,,,,,
,,,,,,space,0.4768,NAN,,NAN,,0,26,26,26,1,27,Charlie,Rej,Participant_Images/60dbf4d94a3b5564b68881e8/60dbf4d94a3b5564b68881e8_Images/60dbf4d94a3b5564b68881e8_Image_3.jpeg,liked,3.799433026,,,,,,,,,,,,
,,,,,,space,0.409,NAN,,NAN,,0,27,27,27,1,28,Charlie,Rej,Participant_Images/60dbf4d94a3b5564b68881e8/60dbf4d94a3b5564b68881e8_Images/60dbf4d94a3b5564b68881e8_Image_14.jpeg,liked,5.246980764,,,,,,,,,,,,
,,,,,,space,0.6318,NAN,,NAN,,0,28,28,28,1,29,Charlie,Rej,Participant_Images/60dbf4d94a3b5564b68881e8/60dbf4d94a3b5564b68881e8_Images/60dbf4d94a3b5564b68881e8_Image_16.jpeg,did not like,3.30081769,,,,,,,,,,,,
,,,,,,,,,,,,,,,,,,,,,,,c,0,space,0.5741,0,0,0,0,1,0.6185,,
,,,,,,,,1,,8,,0,29,29,29,1,30,Charlie,Rej,Participant_Images/60dbf4d94a3b5564b68881e8/60dbf4d94a3b5564b68881e8_Images/60dbf4d94a3b5564b68881e8_Image_13.jpeg,liked,1.661473164,,,,,,,,,,,,
,,,,space,1.6645,space,0.4955,NAN,,NAN,,0,30,30,30,1,31,Riley,Rej,Participant_Images/60dbf4d94a3b5564b68881e8/60dbf4d94a3b5564b68881e8_Images/60dbf4d94a3b5564b68881e8_Image_23.jpeg,did not like,3.613205605,,,,,,,,,,,,
,,,,,,space,0.5322,NAN,,NAN,,0,31,31,31,1,32,Riley,Rej,Participant_Images/60dbf4d94a3b5564b68881e8/60dbf4d94a3b5564b68881e8_Images/60dbf4d94a3b5564b68881e8_Image_1.jpeg,did not like,4.988446431,,,,,,,,,,,,
,,,,,,space,0.5957,NAN,,NAN,,0,32,32,32,1,33,Riley,Rej,Participant_Images/60dbf4d94a3b5564b68881e8/60dbf4d94a3b5564b68881e8_Images/60dbf4d94a3b5564b68881e8_Image_22.jpeg,did not like,3.470791822,,,,,,,,,,,,
,,,,,,space,0.6778,NAN,,NAN,,0,33,33,33,1,34,Riley,Rej,Participant_Images/60dbf4d94a3b5564b68881e8/60dbf4d94a3b5564b68881e8_Images/60dbf4d94a3b5564b68881e8_Image_7.jpeg,did not like,3.820572462,,,,,,,,,,,,
,,,,,,,,,,,,,,,,,,,,,,,c,0,space,0.5223,0,0,0,0,1,1.178,,
,,,,,,,,NAN,,NAN,,0,34,34,34,1,35,Riley,Rej,Participant_Images/60dbf4d94a3b5564b68881e8/60dbf4d94a3b5564b68881e8_Images/60dbf4d94a3b5564b68881e8_Image_24.jpeg,liked,2.455989137,,,,,,,,,,,,
,,,,,,space,0.583,NAN,,NAN,,0,35,35,35,1,36,Riley,Rej,Participant_Images/60dbf4d94a3b5564b68881e8/60dbf4d94a3b5564b68881e8_Images/60dbf4d94a3b5564b68881e8_Image_30.jpeg,liked,3.79605092,,,,,,,,,,,,
,,,,,,space,0.6008,NAN,,NAN,,0,36,36,36,1,37,Riley,Rej,Participant_Images/60dbf4d94a3b5564b68881e8/60dbf4d94a3b5564b68881e8_Images/60dbf4d94a3b5564b68881e8_Image_26.jpeg,liked,3.562416326,,,,,,,,,,,,
,,,,,,space,0.5674,NAN,,NAN,,0,37,37,37,1,38,Riley,Rej,Participant_Images/60dbf4d94a3b5564b68881e8/60dbf4d94a3b5564b68881e8_Images/60dbf4d94a3b5564b68881e8_Image_12.jpeg,liked,2.843822497,,,,,,,,,,,,
,,,,,,space,0.572,NAN,,NAN,,0,38,38,38,1,39,Riley,Rej,Participant_Images/60dbf4d94a3b5564b68881e8/60dbf4d94a3b5564b68881e8_Images/60dbf4d94a3b5564b68881e8_Image_19.jpeg,did not like,3.546495948,,,,,,,,,,,,
,,,,,,,,,,,,,,,,,,,,,,,c,0,space,0.4391,0,0,0,0,1,0.5485,,
,,,,,,,,NAN,,NAN,,0,39,39,39,1,40,Riley,Rej,Participant_Images/60dbf4d94a3b5564b68881e8/60dbf4d94a3b5564b68881e8_Images/60dbf4d94a3b5564b68881e8_Image_28.jpeg,did not like,1.672012706,,,,,,,,,,,,
,,,,,,space,0.4239,NAN,,NAN,,0,40,40,40,1,41,Riley,Rej,Participant_Images/60dbf4d94a3b5564b68881e8/60dbf4d94a3b5564b68881e8_Images/60dbf4d94a3b5564b68881e8_Image_5.jpeg,did not like,4.942172136,,,,,,,,,,,,
,,,,,,space,0.6396,NAN,,NAN,,0,41,41,41,1,42,Riley,Rej,Participant_Images/60dbf4d94a3b5564b68881e8/60dbf4d94a3b5564b68881e8_Images/60dbf4d94a3b5564b68881e8_Image_16.jpeg,did not like,2.50187214,,,,,,,,,,,,
,,,,,,space,0.5645,NAN,,NAN,,0,42,42,42,1,43,Riley,Rej,Participant_Images/60dbf4d94a3b5564b68881e8/60dbf4d94a3b5564b68881e8_Images/60dbf4d94a3b5564b68881e8_Image_29.jpeg,did not like,2.071164779,,,,,,,,,,,,
,,,,,,space,0.5296,NAN,,NAN,,0,43,43,43,1,44,Riley,Rej,Participant_Images/60dbf4d94a3b5564b68881e8/60dbf4d94a3b5564b68881e8_Images/60dbf4d94a3b5564b68881e8_Image_27.jpeg,did not like,5.336503566,,,,,,,,,,,,
,,,,,,,,,,,,,,,,,,,,,,,c,0,space,0.5329,0,0,0,0,1,1.0857,,
,,,,,,,,NAN,,NAN,,0,44,44,44,1,45,Riley,Rej,Participant_Images/60dbf4d94a3b5564b68881e8/60dbf4d94a3b5564b68881e8_Images/60dbf4d94a3b5564b68881e8_Image_8.jpeg,did not like,2.642157193,,,,,,,,,,,,
,,,,,,space,0.4328,NAN,,NAN,,0,45,45,45,1,46,Riley,Rej,Participant_Images/60dbf4d94a3b5564b68881e8/60dbf4d94a3b5564b68881e8_Images/60dbf4d94a3b5564b68881e8_Image_21.jpeg,did not like,4.456234322,,,,,,,,,,,,
,,,,,,space,0.4288,NAN,,NAN,,0,46,46,46,1,47,Riley,Rej,Participant_Images/60dbf4d94a3b5564b68881e8/60dbf4d94a3b5564b68881e8_Images/60dbf4d94a3b5564b68881e8_Image_10.jpeg,did not like,4.438512181,,,,,,,,,,,,
,,,,,,space,0.5589,NAN,,NAN,,0,47,47,47,1,48,Riley,Rej,Participant_Images/60dbf4d94a3b5564b68881e8/60dbf4d94a3b5564b68881e8_Images/60dbf4d94a3b5564b68881e8_Image_6.jpeg,did not like,2.682944783,,,,,,,,,,,,
,,,,,,space,0.615,NAN,,NAN,,0,48,48,48,1,49,Riley,Rej,Participant_Images/60dbf4d94a3b5564b68881e8/60dbf4d94a3b5564b68881e8_Images/60dbf4d94a3b5564b68881e8_Image_18.jpeg,liked,4.51984296,,,,,,,,,,,,
,,,,,,,,,,,,,,,,,,,,,,,c,0,space,0.6121,0,0,0,0,1,1.4442,,
,,,,,,,,NAN,,NAN,,0,49,49,49,1,50,Riley,Rej,Participant_Images/60dbf4d94a3b5564b68881e8/60dbf4d94a3b5564b68881e8_Images/60dbf4d94a3b5564b68881e8_Image_4.jpeg,did not like,3.195382774,,,,,,,,,,,,
,,,,,,space,0.7785,NAN,,NAN,,0,50,50,50,1,51,Riley,Rej,Participant_Images/60dbf4d94a3b5564b68881e8/60dbf4d94a3b5564b68881e8_Images/60dbf4d94a3b5564b68881e8_Image_25.jpeg,liked,1.779333479,,,,,,,,,,,,
,,,,,,space,0.3297,NAN,,NAN,,0,51,51,51,1,52,Riley,Rej,Participant_Images/60dbf4d94a3b5564b68881e8/60dbf4d94a3b5564b68881e8_Images/60dbf4d94a3b5564b68881e8_Image_15.jpeg,did not like,4.312468682,,,,,,,,,,,,
,,,,,,space,0.4101,NAN,,NAN,,0,52,52,52,1,53,Riley,Rej,Participant_Images/60dbf4d94a3b5564b68881e8/60dbf4d94a3b5564b68881e8_Images/60dbf4d94a3b5564b68881e8_Image_9.jpeg,liked,4.940433059,,,,,,,,,,,,
,,,,,,space,0.4705,NAN,,NAN,,0,53,53,53,1,54,Riley,Rej,Participant_Images/60dbf4d94a3b5564b68881e8/60dbf4d94a3b5564b68881e8_Images/60dbf4d94a3b5564b68881e8_Image_2.jpeg,did not like,2.7105123,,,,,,,,,,,,
,,,,,,,,,,,,,,,,,,,,,,,c,0,space,0.6313,0,0,0,0,1,0.979,,
,,,,,,,,NAN,,NAN,,0,54,54,54,1,55,Riley,Rej,Participant_Images/60dbf4d94a3b5564b68881e8/60dbf4d94a3b5564b68881e8_Images/60dbf4d94a3b5564b68881e8_Image_3.jpeg,did not like,3.602308302,,,,,,,,,,,,
,,,,,,space,0.4931,NAN,,NAN,,0,55,55,55,1,56,Riley,Rej,Participant_Images/60dbf4d94a3b5564b68881e8/60dbf4d94a3b5564b68881e8_Images/60dbf4d94a3b5564b68881e8_Image_13.jpeg,did not like,4.106391878,,,,,,,,,,,,
,,,,,,space,0.7449,NAN,,NAN,,0,56,56,56,1,57,Riley,Rej,Participant_Images/60dbf4d94a3b5564b68881e8/60dbf4d94a3b5564b68881e8_Images/60dbf4d94a3b5564b68881e8_Image_17.jpeg,did not like,3.799433026,,,,,,,,,,,,
,,,,,,space,0.6281,NAN,,NAN,,0,57,57,57,1,58,Riley,Rej,Participant_Images/60dbf4d94a3b5564b68881e8/60dbf4d94a3b5564b68881e8_Images/60dbf4d94a3b5564b68881e8_Image_14.jpeg,liked,5.246980764,,,,,,,,,,,,
,,,,,,space,0.5119,NAN,,NAN,,0,58,58,58,1,59,Riley,Rej,Participant_Images/60dbf4d94a3b5564b68881e8/60dbf4d94a3b5564b68881e8_Images/60dbf4d94a3b5564b68881e8_Image_11.jpeg,liked,3.30081769,,,,,,,,,,,,
,,,,,,,,,,,,,,,,,,,,,,,c,0,space,0.552,0,0,0,0,1,1.2403,,
,,,,,,,,2,,7,,0,59,59,59,1,60,Riley,Rej,Participant_Images/60dbf4d94a3b5564b68881e8/60dbf4d94a3b5564b68881e8_Images/60dbf4d94a3b5564b68881e8_Image_20.jpeg,did not like,1.661473164,,,,,,,,,,,,
,,,,space,1.9351,space,0.4707,NAN,,NAN,,0,60,60,60,1,61,Alex,Neutral,Participant_Images/60dbf4d94a3b5564b68881e8/60dbf4d94a3b5564b68881e8_Images/60dbf4d94a3b5564b68881e8_Image_1.jpeg,did not like,3.613205605,,,,,,,,,,,,
,,,,,,space,0.3712,NAN,,NAN,,0,61,61,61,1,62,Alex,Neutral,Participant_Images/60dbf4d94a3b5564b68881e8/60dbf4d94a3b5564b68881e8_Images/60dbf4d94a3b5564b68881e8_Image_27.jpeg,liked,4.988446431,,,,,,,,,,,,
,,,,,,space,0.3252,NAN,,NAN,,0,62,62,62,1,63,Alex,Neutral,Participant_Images/60dbf4d94a3b5564b68881e8/60dbf4d94a3b5564b68881e8_Images/60dbf4d94a3b5564b68881e8_Image_24.jpeg,did not like,3.470791822,,,,,,,,,,,,
,,,,,,space,0.6553,NAN,,NAN,,0,63,63,63,1,64,Alex,Neutral,Participant_Images/60dbf4d94a3b5564b68881e8/60dbf4d94a3b5564b68881e8_Images/60dbf4d94a3b5564b68881e8_Image_6.jpeg,liked,3.820572462,,,,,,,,,,,,
,,,,,,,,,,,,,,,,,,,,,,,c,0,space,2.1344,0,0,0,0,1,2.148,,
,,,,,,,,NAN,,NAN,,0,64,64,64,1,65,Alex,Neutral,Participant_Images/60dbf4d94a3b5564b68881e8/60dbf4d94a3b5564b68881e8_Images/60dbf4d94a3b5564b68881e8_Image_7.jpeg,did not like,2.455989137,,,,,,,,,,,,
,,,,,,space,0.6645,NAN,,NAN,,0,65,65,65,1,66,Alex,Neutral,Participant_Images/60dbf4d94a3b5564b68881e8/60dbf4d94a3b5564b68881e8_Images/60dbf4d94a3b5564b68881e8_Image_30.jpeg,liked,3.79605092,,,,,,,,,,,,
,,,,,,space,0.8492,NAN,,NAN,,0,66,66,66,1,67,Alex,Neutral,Participant_Images/60dbf4d94a3b5564b68881e8/60dbf4d94a3b5564b68881e8_Images/60dbf4d94a3b5564b68881e8_Image_21.jpeg,liked,3.562416326,,,,,,,,,,,,
,,,,,,space,1.7007,NAN,,NAN,,0,67,67,67,1,68,Alex,Neutral,Participant_Images/60dbf4d94a3b5564b68881e8/60dbf4d94a3b5564b68881e8_Images/60dbf4d94a3b5564b68881e8_Image_11.jpeg,did not like,2.843822497,,,,,,,,,,,,
,,,,,,space,0.7643,NAN,,NAN,,0,68,68,68,1,69,Alex,Neutral,Participant_Images/60dbf4d94a3b5564b68881e8/60dbf4d94a3b5564b68881e8_Images/60dbf4d94a3b5564b68881e8_Image_16.jpeg,did not like,3.546495948,,,,,,,,,,,,
,,,,,,,,,,,,,,,,,,,,,,,c,0,space,0.7263,0,0,0,0,1,1.0138,,
,,,,,,,,NAN,,NAN,,0,69,69,69,1,70,Alex,Neutral,Participant_Images/60dbf4d94a3b5564b68881e8/60dbf4d94a3b5564b68881e8_Images/60dbf4d94a3b5564b68881e8_Image_12.jpeg,liked,1.672012706,,,,,,,,,,,,
,,,,,,space,0.4427,NAN,,NAN,,0,70,70,70,1,71,Alex,Neutral,Participant_Images/60dbf4d94a3b5564b68881e8/60dbf4d94a3b5564b68881e8_Images/60dbf4d94a3b5564b68881e8_Image_29.jpeg,liked,4.942172136,,,,,,,,,,,,
,,,,,,space,0.6118,NAN,,NAN,,0,71,71,71,1,72,Alex,Neutral,Participant_Images/60dbf4d94a3b5564b68881e8/60dbf4d94a3b5564b68881e8_Images/60dbf4d94a3b5564b68881e8_Image_4.jpeg,liked,2.50187214,,,,,,,,,,,,
,,,,,,space,1.9408,NAN,,NAN,,0,72,72,72,1,73,Alex,Neutral,Participant_Images/60dbf4d94a3b5564b68881e8/60dbf4d94a3b5564b68881e8_Images/60dbf4d94a3b5564b68881e8_Image_9.jpeg,liked,2.071164779,,,,,,,,,,,,
,,,,,,space,0.4328,NAN,,NAN,,0,73,73,73,1,74,Alex,Neutral,Participant_Images/60dbf4d94a3b5564b68881e8/60dbf4d94a3b5564b68881e8_Images/60dbf4d94a3b5564b68881e8_Image_15.jpeg,did not like,5.336503566,,,,,,,,,,,,
,,,,,,,,,,,,,,,,,,,,,,,c,0,space,1.0297,0,0,0,0,1,1.5767,,
,,,,,,,,NAN,,NAN,,0,74,74,74,1,75,Alex,Neutral,Participant_Images/60dbf4d94a3b5564b68881e8/60dbf4d94a3b5564b68881e8_Images/60dbf4d94a3b5564b68881e8_Image_14.jpeg,did not like,2.642157193,,,,,,,,,,,,
,,,,,,space,0.8068,NAN,,NAN,,0,75,75,75,1,76,Alex,Neutral,Participant_Images/60dbf4d94a3b5564b68881e8/60dbf4d94a3b5564b68881e8_Images/60dbf4d94a3b5564b68881e8_Image_23.jpeg,liked,4.456234322,,,,,,,,,,,,
,,,,,,space,0.8402,NAN,,NAN,,0,76,76,76,1,77,Alex,Neutral,Participant_Images/60dbf4d94a3b5564b68881e8/60dbf4d94a3b5564b68881e8_Images/60dbf4d94a3b5564b68881e8_Image_25.jpeg,did not like,4.438512181,,,,,,,,,,,,
,,,,,,space,1.896,NAN,,NAN,,0,77,77,77,1,78,Alex,Neutral,Participant_Images/60dbf4d94a3b5564b68881e8/60dbf4d94a3b5564b68881e8_Images/60dbf4d94a3b5564b68881e8_Image_10.jpeg,did not like,2.682944783,,,,,,,,,,,,
,,,,,,space,0.7419,NAN,,NAN,,0,78,78,78,1,79,Alex,Neutral,Participant_Images/60dbf4d94a3b5564b68881e8/60dbf4d94a3b5564b68881e8_Images/60dbf4d94a3b5564b68881e8_Image_3.jpeg,liked,4.51984296,,,,,,,,,,,,
,,,,,,,,,,,,,,,,,,,,,,,c,0,space,0.9944,0,0,0,0,1,1.4963,,
,,,,,,,,NAN,,NAN,,0,79,79,79,1,80,Alex,Neutral,Participant_Images/60dbf4d94a3b5564b68881e8/60dbf4d94a3b5564b68881e8_Images/60dbf4d94a3b5564b68881e8_Image_28.jpeg,did not like,3.195382774,,,,,,,,,,,,
,,,,,,space,0.9678,NAN,,NAN,,0,80,80,80,1,81,Alex,Neutral,Participant_Images/60dbf4d94a3b5564b68881e8/60dbf4d94a3b5564b68881e8_Images/60dbf4d94a3b5564b68881e8_Image_18.jpeg,liked,1.779333479,,,,,,,,,,,,
,,,,,,space,0.8106,NAN,,NAN,,0,81,81,81,1,82,Alex,Neutral,Participant_Images/60dbf4d94a3b5564b68881e8/60dbf4d94a3b5564b68881e8_Images/60dbf4d94a3b5564b68881e8_Image_26.jpeg,did not like,4.312468682,,,,,,,,,,,,
,,,,,,space,0.5165,NAN,,NAN,,0,82,82,82,1,83,Alex,Neutral,Participant_Images/60dbf4d94a3b5564b68881e8/60dbf4d94a3b5564b68881e8_Images/60dbf4d94a3b5564b68881e8_Image_8.jpeg,did not like,4.940433059,,,,,,,,,,,,
,,,,,,space,0.6941,NAN,,NAN,,0,83,83,83,1,84,Alex,Neutral,Participant_Images/60dbf4d94a3b5564b68881e8/60dbf4d94a3b5564b68881e8_Images/60dbf4d94a3b5564b68881e8_Image_13.jpeg,did not like,2.7105123,,,,,,,,,,,,
,,,,,,,,,,,,,,,,,,,,,,,c,0,space,0.7404,0,0,0,0,1,1.1129,,
,,,,,,,,NAN,,NAN,,0,84,84,84,1,85,Alex,Neutral,Participant_Images/60dbf4d94a3b5564b68881e8/60dbf4d94a3b5564b68881e8_Images/60dbf4d94a3b5564b68881e8_Image_17.jpeg,liked,3.602308302,,,,,,,,,,,,
,,,,,,space,0.5745,NAN,,NAN,,0,85,85,85,1,86,Alex,Neutral,Participant_Images/60dbf4d94a3b5564b68881e8/60dbf4d94a3b5564b68881e8_Images/60dbf4d94a3b5564b68881e8_Image_2.jpeg,liked,4.106391878,,,,,,,,,,,,
,,,,,,space,0.4233,NAN,,NAN,,0,86,86,86,1,87,Alex,Neutral,Participant_Images/60dbf4d94a3b5564b68881e8/60dbf4d94a3b5564b68881e8_Images/60dbf4d94a3b5564b68881e8_Image_19.jpeg,liked,3.799433026,,,,,,,,,,,,
,,,,,,space,0.6588,NAN,,NAN,,0,87,87,87,1,88,Alex,Neutral,Participant_Images/60dbf4d94a3b5564b68881e8/60dbf4d94a3b5564b68881e8_Images/60dbf4d94a3b5564b68881e8_Image_20.jpeg,did not like,5.246980764,,,,,,,,,,,,
,,,,,,space,0.8587,NAN,,NAN,,0,88,88,88,1,89,Alex,Neutral,Participant_Images/60dbf4d94a3b5564b68881e8/60dbf4d94a3b5564b68881e8_Images/60dbf4d94a3b5564b68881e8_Image_22.jpeg,did not like,3.30081769,,,,,,,,,,,,
,,,,,,,,,,,,,,,,,,,,,,,c,0,space,1.1081,0,0,0,0,1,2.9865,,
,,,,,,,,1,,6,,0,89,89,89,1,90,Alex,Neutral,Participant_Images/60dbf4d94a3b5564b68881e8/60dbf4d94a3b5564b68881e8_Images/60dbf4d94a3b5564b68881e8_Image_5.jpeg,liked,1.661473164,,,,,,,,,,,,
,,,,space,2.4012,space,0.778,NAN,,NAN,,0,90,90,90,1,91,Sam,Acc,Participant_Images/60dbf4d94a3b5564b68881e8/60dbf4d94a3b5564b68881e8_Images/60dbf4d94a3b5564b68881e8_Image_20.jpeg,liked,3.613205605,,,,,,,,,,,,
,,,,,,space,0.6564,NAN,,NAN,,0,91,91,91,1,92,Sam,Acc,Participant_Images/60dbf4d94a3b5564b68881e8/60dbf4d94a3b5564b68881e8_Images/60dbf4d94a3b5564b68881e8_Image_23.jpeg,liked,4.988446431,,,,,,,,,,,,
,,,,,,space,0.8025,NAN,,NAN,,0,92,92,92,1,93,Sam,Acc,Participant_Images/60dbf4d94a3b5564b68881e8/60dbf4d94a3b5564b68881e8_Images/60dbf4d94a3b5564b68881e8_Image_12.jpeg,liked,3.470791822,,,,,,,,,,,,
,,,,,,space,1.2354,NAN,,NAN,,0,93,93,93,1,94,Sam,Acc,Participant_Images/60dbf4d94a3b5564b68881e8/60dbf4d94a3b5564b68881e8_Images/60dbf4d94a3b5564b68881e8_Image_16.jpeg,liked,3.820572462,,,,,,,,,,,,
,,,,,,,,,,,,,,,,,,,,,,,c,0,space,1.208,0,0,0,0,1,1.5544,,
,,,,,,,,NAN,,NAN,,0,94,94,94,1,95,Sam,Acc,Participant_Images/60dbf4d94a3b5564b68881e8/60dbf4d94a3b5564b68881e8_Images/60dbf4d94a3b5564b68881e8_Image_5.jpeg,liked,2.455989137,,,,,,,,,,,,
,,,,,,space,0.6413,NAN,,NAN,,0,95,95,95,1,96,Sam,Acc,Participant_Images/60dbf4d94a3b5564b68881e8/60dbf4d94a3b5564b68881e8_Images/60dbf4d94a3b5564b68881e8_Image_10.jpeg,liked,3.79605092,,,,,,,,,,,,
,,,,,,space,0.7803,NAN,,NAN,,0,96,96,96,1,97,Sam,Acc,Participant_Images/60dbf4d94a3b5564b68881e8/60dbf4d94a3b5564b68881e8_Images/60dbf4d94a3b5564b68881e8_Image_7.jpeg,liked,3.562416326,,,,,,,,,,,,
,,,,,,space,1.1849,NAN,,NAN,,0,97,97,97,1,98,Sam,Acc,Participant_Images/60dbf4d94a3b5564b68881e8/60dbf4d94a3b5564b68881e8_Images/60dbf4d94a3b5564b68881e8_Image_24.jpeg,liked,2.843822497,,,,,,,,,,,,
,,,,,,space,1.0567,NAN,,NAN,,0,98,98,98,1,99,Sam,Acc,Participant_Images/60dbf4d94a3b5564b68881e8/60dbf4d94a3b5564b68881e8_Images/60dbf4d94a3b5564b68881e8_Image_21.jpeg,did not like,3.546495948,,,,,,,,,,,,
,,,,,,,,,,,,,,,,,,,,,,,c,0,space,1.1647,0,0,0,0,1,1.0602,,
,,,,,,,,NAN,,NAN,,0,99,99,99,1,100,Sam,Acc,Participant_Images/60dbf4d94a3b5564b68881e8/60dbf4d94a3b5564b68881e8_Images/60dbf4d94a3b5564b68881e8_Image_9.jpeg,liked,1.672012706,,,,,,,,,,,,
,,,,,,space,0.3753,NAN,,NAN,,0,100,100,100,1,101,Sam,Acc,Participant_Images/60dbf4d94a3b5564b68881e8/60dbf4d94a3b5564b68881e8_Images/60dbf4d94a3b5564b68881e8_Image_27.jpeg,liked,4.942172136,,,,,,,,,,,,
,,,,,,space,0.8028,NAN,,NAN,,0,101,101,101,1,102,Sam,Acc,Participant_Images/60dbf4d94a3b5564b68881e8/60dbf4d94a3b5564b68881e8_Images/60dbf4d94a3b5564b68881e8_Image_11.jpeg,liked,2.50187214,,,,,,,,,,,,
,,,,,,space,0.4933,NAN,,NAN,,0,102,102,102,1,103,Sam,Acc,Participant_Images/60dbf4d94a3b5564b68881e8/60dbf4d94a3b5564b68881e8_Images/60dbf4d94a3b5564b68881e8_Image_18.jpeg,liked,2.071164779,,,,,,,,,,,,
,,,,,,space,0.8907,NAN,,NAN,,0,103,103,103,1,104,Sam,Acc,Participant_Images/60dbf4d94a3b5564b68881e8/60dbf4d94a3b5564b68881e8_Images/60dbf4d94a3b5564b68881e8_Image_8.jpeg,liked,5.336503566,,,,,,,,,,,,
,,,,,,,,,,,,,,,,,,,,,,,c,0,space,1.1829,0,0,0,0,1,1.2236,,
,,,,,,,,NAN,,NAN,,0,104,104,104,1,105,Sam,Acc,Participant_Images/60dbf4d94a3b5564b68881e8/60dbf4d94a3b5564b68881e8_Images/60dbf4d94a3b5564b68881e8_Image_14.jpeg,liked,2.642157193,,,,,,,,,,,,
,,,,,,space,0.4592,NAN,,NAN,,0,105,105,105,1,106,Sam,Acc,Participant_Images/60dbf4d94a3b5564b68881e8/60dbf4d94a3b5564b68881e8_Images/60dbf4d94a3b5564b68881e8_Image_3.jpeg,did not like,4.456234322,,,,,,,,,,,,
,,,,,,space,0.5218,NAN,,NAN,,0,106,106,106,1,107,Sam,Acc,Participant_Images/60dbf4d94a3b5564b68881e8/60dbf4d94a3b5564b68881e8_Images/60dbf4d94a3b5564b68881e8_Image_15.jpeg,did not like,4.438512181,,,,,,,,,,,,
,,,,,,space,0.7258,NAN,,NAN,,0,107,107,107,1,108,Sam,Acc,Participant_Images/60dbf4d94a3b5564b68881e8/60dbf4d94a3b5564b68881e8_Images/60dbf4d94a3b5564b68881e8_Image_13.jpeg,did not like,2.682944783,,,,,,,,,,,,
,,,,,,space,0.5728,NAN,,NAN,,0,108,108,108,1,109,Sam,Acc,Participant_Images/60dbf4d94a3b5564b68881e8/60dbf4d94a3b5564b68881e8_Images/60dbf4d94a3b5564b68881e8_Image_30.jpeg,liked,4.51984296,,,,,,,,,,,,
,,,,,,,,,,,,,,,,,,,,,,,c,0,space,0.5793,0,0,0,0,1,1.2207,,
,,,,,,,,NAN,,NAN,,0,109,109,109,1,110,Sam,Acc,Participant_Images/60dbf4d94a3b5564b68881e8/60dbf4d94a3b5564b68881e8_Images/60dbf4d94a3b5564b68881e8_Image_19.jpeg,did not like,3.195382774,,,,,,,,,,,,
,,,,,,space,1.2749,NAN,,NAN,,0,110,110,110,1,111,Sam,Acc,Participant_Images/60dbf4d94a3b5564b68881e8/60dbf4d94a3b5564b68881e8_Images/60dbf4d94a3b5564b68881e8_Image_28.jpeg,liked,1.779333479,,,,,,,,,,,,
,,,,,,space,0.3084,NAN,,NAN,,0,111,111,111,1,112,Sam,Acc,Participant_Images/60dbf4d94a3b5564b68881e8/60dbf4d94a3b5564b68881e8_Images/60dbf4d94a3b5564b68881e8_Image_25.jpeg,did not like,4.312468682,,,,,,,,,,,,
,,,,,,space,0.8912,NAN,,NAN,,0,112,112,112,1,113,Sam,Acc,Participant_Images/60dbf4d94a3b5564b68881e8/60dbf4d94a3b5564b68881e8_Images/60dbf4d94a3b5564b68881e8_Image_17.jpeg,liked,4.940433059,,,,,,,,,,,,
,,,,,,space,0.7929,NAN,,NAN,,0,113,113,113,1,114,Sam,Acc,Participant_Images/60dbf4d94a3b5564b68881e8/60dbf4d94a3b5564b68881e8_Images/60dbf4d94a3b5564b68881e8_Image_1.jpeg,liked,2.7105123,,,,,,,,,,,,
,,,,,,,,,,,,,,,,,,,,,,,c,0,space,0.9681,0,0,0,0,1,1.1423,,
,,,,,,,,NAN,,NAN,,0,114,114,114,1,115,Sam,Acc,Participant_Images/60dbf4d94a3b5564b68881e8/60dbf4d94a3b5564b68881e8_Images/60dbf4d94a3b5564b68881e8_Image_22.jpeg,did not like,3.602308302,,,,,,,,,,,,
,,,,,,space,0.6758,NAN,,NAN,,0,115,115,115,1,116,Sam,Acc,Participant_Images/60dbf4d94a3b5564b68881e8/60dbf4d94a3b5564b68881e8_Images/60dbf4d94a3b5564b68881e8_Image_29.jpeg,did not like,4.106391878,,,,,,,,,,,,
,,,,,,space,0.8244,NAN,,NAN,,0,116,116,116,1,117,Sam,Acc,Participant_Images/60dbf4d94a3b5564b68881e8/60dbf4d94a3b5564b68881e8_Images/60dbf4d94a3b5564b68881e8_Image_26.jpeg,liked,3.799433026,,,,,,,,,,,,
,,,,,,space,0.94,NAN,,NAN,,0,117,117,117,1,118,Sam,Acc,Participant_Images/60dbf4d94a3b5564b68881e8/60dbf4d94a3b5564b68881e8_Images/60dbf4d94a3b5564b68881e8_Image_4.jpeg,liked,5.246980764,,,,,,,,,,,,
,,,,,,space,1.3182,NAN,,NAN,,0,118,118,118,1,119,Sam,Acc,Participant_Images/60dbf4d94a3b5564b68881e8/60dbf4d94a3b5564b68881e8_Images/60dbf4d94a3b5564b68881e8_Image_2.jpeg,did not like,3.30081769,,,,,,,,,,,,
,,,,,,,,,,,,,,,,,,,,,,,c,0,space,0.9984,0,0,0,0,1,0.8719,,
,,,,,,,,3,,6,,0,119,119,119,1,120,Sam,Acc,Participant_Images/60dbf4d94a3b5564b68881e8/60dbf4d94a3b5564b68881e8_Images/60dbf4d94a3b5564b68881e8_Image_6.jpeg,liked,1.661473164,,,,,,,,,,,,
,,,,space,1.7766,space,0.6406,NAN,,NAN,,0,120,120,120,1,121,Taylor,Acc,Participant_Images/60dbf4d94a3b5564b68881e8/60dbf4d94a3b5564b68881e8_Images/60dbf4d94a3b5564b68881e8_Image_25.jpeg,liked,3.613205605,,,,,,,,,,,,
,,,,,,space,0.6242,NAN,,NAN,,0,121,121,121,1,122,Taylor,Acc,Participant_Images/60dbf4d94a3b5564b68881e8/60dbf4d94a3b5564b68881e8_Images/60dbf4d94a3b5564b68881e8_Image_15.jpeg,liked,4.988446431,,,,,,,,,,,,
,,,,,,space,0.8346,NAN,,NAN,,0,122,122,122,1,123,Taylor,Acc,Participant_Images/60dbf4d94a3b5564b68881e8/60dbf4d94a3b5564b68881e8_Images/60dbf4d94a3b5564b68881e8_Image_27.jpeg,did not like,3.470791822,,,,,,,,,,,,
,,,,,,space,0.9008,NAN,,NAN,,0,123,123,123,1,124,Taylor,Acc,Participant_Images/60dbf4d94a3b5564b68881e8/60dbf4d94a3b5564b68881e8_Images/60dbf4d94a3b5564b68881e8_Image_7.jpeg,liked,3.820572462,,,,,,,,,,,,
,,,,,,,,,,,,,,,,,,,,,,,c,0,space,0.7332,0,0,0,0,1,1.2569,,
,,,,,,,,NAN,,NAN,,0,124,124,124,1,125,Taylor,Acc,Participant_Images/60dbf4d94a3b5564b68881e8/60dbf4d94a3b5564b68881e8_Images/60dbf4d94a3b5564b68881e8_Image_2.jpeg,did not like,2.455989137,,,,,,,,,,,,
,,,,,,space,0.7637,NAN,,NAN,,0,125,125,125,1,126,Taylor,Acc,Participant_Images/60dbf4d94a3b5564b68881e8/60dbf4d94a3b5564b68881e8_Images/60dbf4d94a3b5564b68881e8_Image_9.jpeg,liked,3.79605092,,,,,,,,,,,,
,,,,,,space,0.676,NAN,,NAN,,0,126,126,126,1,127,Taylor,Acc,Participant_Images/60dbf4d94a3b5564b68881e8/60dbf4d94a3b5564b68881e8_Images/60dbf4d94a3b5564b68881e8_Image_12.jpeg,liked,3.562416326,,,,,,,,,,,,
,,,,,,space,1.0269,NAN,,NAN,,0,127,127,127,1,128,Taylor,Acc,Participant_Images/60dbf4d94a3b5564b68881e8/60dbf4d94a3b5564b68881e8_Images/60dbf4d94a3b5564b68881e8_Image_17.jpeg,liked,2.843822497,,,,,,,,,,,,
,,,,,,space,0.5086,NAN,,NAN,,0,128,128,128,1,129,Taylor,Acc,Participant_Images/60dbf4d94a3b5564b68881e8/60dbf4d94a3b5564b68881e8_Images/60dbf4d94a3b5564b68881e8_Image_21.jpeg,did not like,3.546495948,,,,,,,,,,,,
,,,,,,,,,,,,,,,,,,,,,,,c,0,space,1.3006,0,0,0,0,1,1.1204,,
,,,,,,,,NAN,,NAN,,0,129,129,129,1,130,Taylor,Acc,Participant_Images/60dbf4d94a3b5564b68881e8/60dbf4d94a3b5564b68881e8_Images/60dbf4d94a3b5564b68881e8_Image_11.jpeg,did not like,1.672012706,,,,,,,,,,,,
,,,,,,space,0.7399,NAN,,NAN,,0,130,130,130,1,131,Taylor,Acc,Participant_Images/60dbf4d94a3b5564b68881e8/60dbf4d94a3b5564b68881e8_Images/60dbf4d94a3b5564b68881e8_Image_29.jpeg,liked,4.942172136,,,,,,,,,,,,
,,,,,,space,0.6999,NAN,,NAN,,0,131,131,131,1,132,Taylor,Acc,Participant_Images/60dbf4d94a3b5564b68881e8/60dbf4d94a3b5564b68881e8_Images/60dbf4d94a3b5564b68881e8_Image_10.jpeg,liked,2.50187214,,,,,,,,,,,,
,,,,,,space,0.7188,NAN,,NAN,,0,132,132,132,1,133,Taylor,Acc,Participant_Images/60dbf4d94a3b5564b68881e8/60dbf4d94a3b5564b68881e8_Images/60dbf4d94a3b5564b68881e8_Image_22.jpeg,did not like,2.071164779,,,,,,,,,,,,
,,,,,,space,0.8018,NAN,,NAN,,0,133,133,133,1,134,Taylor,Acc,Participant_Images/60dbf4d94a3b5564b68881e8/60dbf4d94a3b5564b68881e8_Images/60dbf4d94a3b5564b68881e8_Image_13.jpeg,liked,5.336503566,,,,,,,,,,,,
,,,,,,,,,,,,,,,,,,,,,,,c,0,space,0.7485,0,0,0,0,1,1.0887,,
,,,,,,,,NAN,,NAN,,0,134,134,134,1,135,Taylor,Acc,Participant_Images/60dbf4d94a3b5564b68881e8/60dbf4d94a3b5564b68881e8_Images/60dbf4d94a3b5564b68881e8_Image_20.jpeg,did not like,2.642157193,,,,,,,,,,,,
,,,,,,space,0.3489,NAN,,NAN,,0,135,135,135,1,136,Taylor,Acc,Participant_Images/60dbf4d94a3b5564b68881e8/60dbf4d94a3b5564b68881e8_Images/60dbf4d94a3b5564b68881e8_Image_6.jpeg,liked,4.456234322,,,,,,,,,,,,
,,,,,,space,1.941,NAN,,NAN,,0,136,136,136,1,137,Taylor,Acc,Participant_Images/60dbf4d94a3b5564b68881e8/60dbf4d94a3b5564b68881e8_Images/60dbf4d94a3b5564b68881e8_Image_23.jpeg,liked,4.438512181,,,,,,,,,,,,
,,,,,,space,0.7156,NAN,,NAN,,0,137,137,137,1,138,Taylor,Acc,Participant_Images/60dbf4d94a3b5564b68881e8/60dbf4d94a3b5564b68881e8_Images/60dbf4d94a3b5564b68881e8_Image_1.jpeg,liked,2.682944783,,,,,,,,,,,,
,,,,,,space,0.5351,NAN,,NAN,,0,138,138,138,1,139,Taylor,Acc,Participant_Images/60dbf4d94a3b5564b68881e8/60dbf4d94a3b5564b68881e8_Images/60dbf4d94a3b5564b68881e8_Image_19.jpeg,liked,4.51984296,,,,,,,,,,,,
,,,,,,,,,,,,,,,,,,,,,,,c,0,space,0.9346,0,0,0,0,1,1.5549,,
,,,,,,,,NAN,,NAN,,0,139,139,139,1,140,Taylor,Acc,Participant_Images/60dbf4d94a3b5564b68881e8/60dbf4d94a3b5564b68881e8_Images/60dbf4d94a3b5564b68881e8_Image_4.jpeg,did not like,3.195382774,,,,,,,,,,,,
,,,,,,space,0.6519,NAN,,NAN,,0,140,140,140,1,141,Taylor,Acc,Participant_Images/60dbf4d94a3b5564b68881e8/60dbf4d94a3b5564b68881e8_Images/60dbf4d94a3b5564b68881e8_Image_18.jpeg,liked,1.779333479,,,,,,,,,,,,
,,,,,,space,0.4909,NAN,,NAN,,0,141,141,141,1,142,Taylor,Acc,Participant_Images/60dbf4d94a3b5564b68881e8/60dbf4d94a3b5564b68881e8_Images/60dbf4d94a3b5564b68881e8_Image_3.jpeg,liked,4.312468682,,,,,,,,,,,,
,,,,,,space,0.6243,NAN,,NAN,,0,142,142,142,1,143,Taylor,Acc,Participant_Images/60dbf4d94a3b5564b68881e8/60dbf4d94a3b5564b68881e8_Images/60dbf4d94a3b5564b68881e8_Image_5.jpeg,liked,4.940433059,,,,,,,,,,,,
,,,,,,space,0.9495,NAN,,NAN,,0,143,143,143,1,144,Taylor,Acc,Participant_Images/60dbf4d94a3b5564b68881e8/60dbf4d94a3b5564b68881e8_Images/60dbf4d94a3b5564b68881e8_Image_14.jpeg,did not like,2.7105123,,,,,,,,,,,,
,,,,,,,,,,,,,,,,,,,,,,,c,0,space,0.9051,0,0,0,0,1,1.2314,,
,,,,,,,,NAN,,NAN,,0,144,144,144,1,145,Taylor,Acc,Participant_Images/60dbf4d94a3b5564b68881e8/60dbf4d94a3b5564b68881e8_Images/60dbf4d94a3b5564b68881e8_Image_16.jpeg,liked,3.602308302,,,,,,,,,,,,
,,,,,,space,0.7731,NAN,,NAN,,0,145,145,145,1,146,Taylor,Acc,Participant_Images/60dbf4d94a3b5564b68881e8/60dbf4d94a3b5564b68881e8_Images/60dbf4d94a3b5564b68881e8_Image_26.jpeg,liked,4.106391878,,,,,,,,,,,,
,,,,,,space,0.6576,NAN,,NAN,,0,146,146,146,1,147,Taylor,Acc,Participant_Images/60dbf4d94a3b5564b68881e8/60dbf4d94a3b5564b68881e8_Images/60dbf4d94a3b5564b68881e8_Image_30.jpeg,liked,3.799433026,,,,,,,,,,,,
,,,,,,space,0.5835,NAN,,NAN,,0,147,147,147,1,148,Taylor,Acc,Participant_Images/60dbf4d94a3b5564b68881e8/60dbf4d94a3b5564b68881e8_Images/60dbf4d94a3b5564b68881e8_Image_8.jpeg,did not like,5.246980764,,,,,,,,,,,,
,,,,,,space,0.4415,NAN,,NAN,,0,148,148,148,1,149,Taylor,Acc,Participant_Images/60dbf4d94a3b5564b68881e8/60dbf4d94a3b5564b68881e8_Images/60dbf4d94a3b5564b68881e8_Image_24.jpeg,liked,3.30081769,,,,,,,,,,,,
,,,,,,,,,,,,,,,,,,,,,,,c,0,space,0.5163,0,0,0,0,1,1.3546,,
,,,,,,,,2,,6,,0,149,149,149,1,150,Taylor,Acc,Participant_Images/60dbf4d94a3b5564b68881e8/60dbf4d94a3b5564b68881e8_Images/60dbf4d94a3b5564b68881e8_Image_28.jpeg,liked,1.661473164,,,,,,,,,,,,
,,,,,,,,,,,,,,,,,,,,,,,,,,,,,,,,,space,2.599
