PROLIFIC_ID,endwelcomescreen_keys.keys,endwelcomescreen_keys.rt,endinstructionscreen_keys.keys,endinstructionscreen_keys.rt,endpartnermatch_keys.keys,endpartnermatch_keys.rt,sharenextphoto_key.keys,sharenextphoto_key.rt,salience_rating,key_resp.keys,stress_level,stresslevel_keypress.keys,entiretaskloop.thisRepN,entiretaskloop.thisTrialN,entiretaskloop.thisN,entiretaskloop.thisIndex,entiretaskloop.ran,TrialNumber,Partner,Condition,Photos,Feedback,FeedbackWait,choice_keys.keys,playlottery,resumeafterlottery_keys.keys,resumeafterlottery_keys.rt,lotteryloop.thisRepN,lotteryloop.thisTrialN,lotteryloop.thisN,lotteryloop.thisIndex,lotteryloop.ran,choice_keys.rt,end_screen_keys.keys,end_screen_keys.rt
60dbf4d94a3b5564b68881e8,space,8.8753,,,,,,,,,,,,,,,,,,,,,,,,,,,,,,,,,
60dbf4d94a3b5564b68881e8,,,,,,,,,,,,,,,,,,,,,,,,,,,,,,,,,,,
60dbf4d94a3b5564b68881e8,,,space,11.6405,,,,,,,,,,,,,,,,,,,,,,,,,,,,,,,
60dbf4d94a3b5564b68881e8,,,,,space,2.3543,space,1.5584,NAN,,NAN,,0.0,0.0,0.0,0.0,1.0,1.0,Charlie,Rej,Participant_Images/60dbf4d94a3b5564b68881e8/60dbf4d94a3b5564b68881e8_Images/60dbf4d94a3b5564b68881e8_Image_1.jpeg,did not like,3.613205605,,,,,,,,,,,,
60dbf4d94a3b5564b68881e8,,,,,,,space,1.4377,NAN,,NAN,,0.0,1.0,1.0,1.0,1.0,2.0,Charlie,Rej,Participant_Images/60dbf4d94a3b5564b68881e8/60dbf4d94a3b5564b68881e8_Images/60dbf4d94a3b5564b68881e8_Image_9.jpeg,did not like,4.988446431,,,,,,,,,,,,
60dbf4d94a3b5564b68881e8,,,,,,,space,0.495,NAN,,NAN,,0.0,2.0,2.0,2.0,1.0,3.0,Charlie,Rej,Participant_Images/60dbf4d94a3b5564b68881e8/60dbf4d94a3b5564b68881e8_Images/60dbf4d94a3b5564b68881e8_Image_29.jpeg,did not like,3.470791822,,,,,,,,,,,,
60dbf4d94a3b5564b68881e8,,,,,,,space,0.721,NAN,,NAN,,0.0,3.0,3.0,3.0,1.0,4.0,Charlie,Rej,Participant_Images/60dbf4d94a3b5564b68881e8/60dbf4d94a3b5564b68881e8_Images/60dbf4d94a3b5564b68881e8_Image_21.jpeg,liked,3.820572462,,,,,,,,,,,,
60dbf4d94a3b5564b68881e8,,,,,,,,,,,,,,,,,,,,,,,,,999.0,space,3.1104,0.0,0.0,0.0,0.0,1.0,,,
60dbf4d94a3b5564b68881e8,,,,,,,,,NAN,,NAN,,0.0,4.0,4.0,4.0,1.0,5.0,Charlie,Rej,Participant_Images/60dbf4d94a3b5564b68881e8/60dbf4d94a3b5564b68881e8_Images/60dbf4d94a3b5564b68881e8_Image_30.jpeg,did not like,2.455989137,,,,,,,,,,,,
60dbf4d94a3b5564b68881e8,,,,,,,space,0.3429,NAN,,NAN,,0.0,5.0,5.0,5.0,1.0,6.0,Charlie,Rej,Participant_Images/60dbf4d94a3b5564b68881e8/60dbf4d94a3b5564b68881e8_Images/60dbf4d94a3b5564b68881e8_Image_11.jpeg,did not like,3.79605092,,,,,,,,,,,,
60dbf4d94a3b5564b68881e8,,,,,,,space,0.8851,NAN,,NAN,,0.0,6.0,6.0,6.0,1.0,7.0,Charlie,Rej,Participant_Images/60dbf4d94a3b5564b68881e8/60dbf4d94a3b5564b68881e8_Images/60dbf4d94a3b5564b68881e8_Image_10.jpeg,did not like,3.562416326,,,,,,,,,,,,
60dbf4d94a3b5564b68881e8,,,,,,,space,0.6098,NAN,,NAN,,0.0,7.0,7.0,7.0,1.0,8.0,Charlie,Rej,Participant_Images/60dbf4d94a3b5564b68881e8/60dbf4d94a3b5564b68881e8_Images/60dbf4d94a3b5564b68881e8_Image_6.jpeg,did not like,2.843822497,,,,,,,,,,,,
60dbf4d94a3b5564b68881e8,,,,,,,space,0.4439,NAN,,NAN,,0.0,8.0,8.0,8.0,1.0,9.0,Charlie,Rej,Participant_Images/60dbf4d94a3b5564b68881e8/60dbf4d94a3b5564b68881e8_Images/60dbf4d94a3b5564b68881e8_Image_25.jpeg,did not like,3.546495948,,,,,,,,,,,,
60dbf4d94a3b5564b68881e8,,,,,,,,,,,,,,,,,,,,,,,,c,0.0,space,0.8221,0.0,0.0,0.0,0.0,1.0,0.5361,,
60dbf4d94a3b5564b68881e8,,,,,,,,,NAN,,NAN,,0.0,9.0,9.0,9.0,1.0,10.0,Charlie,Rej,Participant_Images/60dbf4d94a3b5564b68881e8/60dbf4d94a3b5564b68881e8_Images/60dbf4d94a3b5564b68881e8_Image_4.jpeg,liked,1.672012706,,,,,,,,,,,,
60dbf4d94a3b5564b68881e8,,,,,,,space,0.8413,NAN,,NAN,,0.0,10.0,10.0,10.0,1.0,11.0,Charlie,Rej,Participant_Images/60dbf4d94a3b5564b68881e8/60dbf4d94a3b5564b68881e8_Images/60dbf4d94a3b5564b68881e8_Image_7.jpeg,did not like,4.942172136,,,,,,,,,,,,
60dbf4d94a3b5564b68881e8,,,,,,,space,0.4944,NAN,,NAN,,0.0,11.0,11.0,11.0,1.0,12.0,Charlie,Rej,Participant_Images/60dbf4d94a3b5564b68881e8/60dbf4d94a3b5564b68881e8_Images/60dbf4d94a3b5564b68881e8_Image_19.jpeg,liked,2.50187214,,,,,,,,,,,,
60dbf4d94a3b5564b68881e8,,,,,,,space,0.3849,NAN,,NAN,,0.0,12.0,12.0,12.0,1.0,13.0,Charlie,Rej,Participant_Images/60dbf4d94a3b5564b68881e8/60dbf4d94a3b5564b68881e8_Images/60dbf4d94a3b5564b68881e8_Image_22.jpeg,did not like,2.071164779,,,,,,,,,,,,
60dbf4d94a3b5564b68881e8,,,,,,,space,0.5681,NAN,,NAN,,0.0,13.0,13.0,13.0,1.0,14.0,Charlie,Rej,Participant_Images/60dbf4d94a3b5564b68881e8/60dbf4d94a3b5564b68881e8_Images/60dbf4d94a3b5564b68881e8_Image_28.jpeg,did not like,5.336503566,,,,,,,,,,,,
60dbf4d94a3b5564b68881e8,,,,,,,,,,,,,,,,,,,,,,,,c,0.0,space,0.869,0.0,0.0,0.0,0.0,1.0,1.1904,,
60dbf4d94a3b5564b68881e8,,,,,,,,,NAN,,NAN,,0.0,14.0,14.0,14.0,1.0,15.0,Charlie,Rej,Participant_Images/60dbf4d94a3b5564b68881e8/60dbf4d94a3b5564b68881e8_Images/60dbf4d94a3b5564b68881e8_Image_5.jpeg,did not like,2.642157193,,,,,,,,,,,,
60dbf4d94a3b5564b68881e8,,,,,,,space,0.6792,NAN,,NAN,,0.0,15.0,15.0,15.0,1.0,16.0,Charlie,Rej,Participant_Images/60dbf4d94a3b5564b68881e8/60dbf4d94a3b5564b68881e8_Images/60dbf4d94a3b5564b68881e8_Image_24.jpeg,did not like,4.456234322,,,,,,,,,,,,
60dbf4d94a3b5564b68881e8,,,,,,,space,0.3171,NAN,,NAN,,0.0,16.0,16.0,16.0,1.0,17.0,Charlie,Rej,Participant_Images/60dbf4d94a3b5564b68881e8/60dbf4d94a3b5564b68881e8_Images/60dbf4d94a3b5564b68881e8_Image_27.jpeg,did not like,4.438512181,,,,,,,,,,,,
60dbf4d94a3b5564b68881e8,,,,,,,space,0.3327,NAN,,NAN,,0.0,17.0,17.0,17.0,1.0,18.0,Charlie,Rej,Participant_Images/60dbf4d94a3b5564b68881e8/60dbf4d94a3b5564b68881e8_Images/60dbf4d94a3b5564b68881e8_Image_18.jpeg,did not like,2.682944783,,,,,,,,,,,,
60dbf4d94a3b5564b68881e8,,,,,,,space,0.3246,NAN,,NAN,,0.0,18.0,18.0,18.0,1.0,19.0,Charlie,Rej,Participant_Images/60dbf4d94a3b5564b68881e8/60dbf4d94a3b5564b68881e8_Images/60dbf4d94a3b5564b68881e8_Image_23.jpeg,did not like,4.51984296,,,,,,,,,,,,
60dbf4d94a3b5564b68881e8,,,,,,,,,,,,,,,,,,,,,,,,c,0.0,space,0.6175,0.0,0.0,0.0,0.0,1.0,0.4059,,
60dbf4d94a3b5564b68881e8,,,,,,,,,NAN,,NAN,,0.0,19.0,19.0,19.0,1.0,20.0,Charlie,Rej,Participant_Images/60dbf4d94a3b5564b68881e8/60dbf4d94a3b5564b68881e8_Images/60dbf4d94a3b5564b68881e8_Image_26.jpeg,liked,3.195382774,,,,,,,,,,,,
60dbf4d94a3b5564b68881e8,,,,,,,space,0.7322,NAN,,NAN,,0.0,20.0,20.0,20.0,1.0,21.0,Charlie,Rej,Participant_Images/60dbf4d94a3b5564b68881e8/60dbf4d94a3b5564b68881e8_Images/60dbf4d94a3b5564b68881e8_Image_12.jpeg,did not like,1.779333479,,,,,,,,,,,,
60dbf4d94a3b5564b68881e8,,,,,,,space,0.483,NAN,,NAN,,0.0,21.0,21.0,21.0,1.0,22.0,Charlie,Rej,Participant_Images/60dbf4d94a3b5564b68881e8/60dbf4d94a3b5564b68881e8_Images/60dbf4d94a3b5564b68881e8_Image_20.jpeg,liked,4.312468682,,,,,,,,,,,,
60dbf4d94a3b5564b68881e8,,,,,,,space,0.5899,NAN,,NAN,,0.0,22.0,22.0,22.0,1.0,23.0,Charlie,Rej,Participant_Images/60dbf4d94a3b5564b68881e8/60dbf4d94a3b5564b68881e8_Images/60dbf4d94a3b5564b68881e8_Image_8.jpeg,did not like,4.940433059,,,,,,,,,,,,
60dbf4d94a3b5564b68881e8,,,,,,,space,0.5097,NAN,,NAN,,0.0,23.0,23.0,23.0,1.0,24.0,Charlie,Rej,Participant_Images/60dbf4d94a3b5564b68881e8/60dbf4d94a3b5564b68881e8_Images/60dbf4d94a3b5564b68881e8_Image_2.jpeg,liked,2.7105123,,,,,,,,,,,,
60dbf4d94a3b5564b68881e8,,,,,,,,,,,,,,,,,,,,,,,,c,0.0,space,0.8419,0.0,0.0,0.0,0.0,1.0,0.7248,,
60dbf4d94a3b5564b68881e8,,,,,,,,,NAN,,NAN,,0.0,24.0,24.0,24.0,1.0,25.0,Charlie,Rej,Participant_Images/60dbf4d94a3b5564b68881e8/60dbf4d94a3b5564b68881e8_Images/60dbf4d94a3b5564b68881e8_Image_15.jpeg,did not like,3.602308302,,,,,,,,,,,,
60dbf4d94a3b5564b68881e8,,,,,,,space,0.4898,NAN,,NAN,,0.0,25.0,25.0,25.0,1.0,26.0,Charlie,Rej,Participant_Images/60dbf4d94a3b5564b68881e8/60dbf4d94a3b5564b68881e8_Images/60dbf4d94a3b5564b68881e8_Image_17.jpeg,did not like,4.106391878,,,,,,,,,,,,
60dbf4d94a3b5564b68881e8,,,,,,,space,0.4768,NAN,,NAN,,0.0,26.0,26.0,26.0,1.0,27.0,Charlie,Rej,Participant_Images/60dbf4d94a3b5564b68881e8/60dbf4d94a3b5564b68881e8_Images/60dbf4d94a3b5564b68881e8_Image_3.jpeg,liked,3.799433026,,,,,,,,,,,,
60dbf4d94a3b5564b68881e8,,,,,,,space,0.409,NAN,,NAN,,0.0,27.0,27.0,27.0,1.0,28.0,Charlie,Rej,Participant_Images/60dbf4d94a3b5564b68881e8/60dbf4d94a3b5564b68881e8_Images/60dbf4d94a3b5564b68881e8_Image_14.jpeg,liked,5.246980764,,,,,,,,,,,,
60dbf4d94a3b5564b68881e8,,,,,,,space,0.6318,NAN,,NAN,,0.0,28.0,28.0,28.0,1.0,29.0,Charlie,Rej,Participant_Images/60dbf4d94a3b5564b68881e8/60dbf4d94a3b5564b68881e8_Images/60dbf4d94a3b5564b68881e8_Image_16.jpeg,did not like,3.30081769,,,,,,,,,,,,
60dbf4d94a3b5564b68881e8,,,,,,,,,,,,,,,,,,,,,,,,c,0.0,space,0.5741,0.0,0.0,0.0,0.0,1.0,0.6185,,
60dbf4d94a3b5564b68881e8,,,,,,,,,1,,8,,0.0,29.0,29.0,29.0,1.0,30.0,Charlie,Rej,Participant_Images/60dbf4d94a3b5564b68881e8/60dbf4d94a3b5564b68881e8_Images/60dbf4d94a3b5564b68881e8_Image_13.jpeg,liked,1.661473164,,,,,,,,,,,,
60dbf4d94a3b5564b68881e8,,,,,space,1.6645,space,0.4955,NAN,,NAN,,0.0,30.0,30.0,30.0,1.0,31.0,Riley,Rej,Participant_Images/60dbf4d94a3b5564b68881e8/60dbf4d94a3b5564b68881e8_Images/60dbf4d94a3b5564b68881e8_Image_23.jpeg,did not like,3.613205605,,,,,,,,,,,,
60dbf4d94a3b5564b68881e8,,,,,,,space,0.5322,NAN,,NAN,,0.0,31.0,31.0,31.0,1.0,32.0,Riley,Rej,Participant_Images/60dbf4d94a3b5564b68881e8/60dbf4d94a3b5564b68881e8_Images/60dbf4d94a3b5564b68881e8_Image_1.jpeg,did not like,4.988446431,,,,,,,,,,,,
60dbf4d94a3b5564b68881e8,,,,,,,space,0.5957,NAN,,NAN,,0.0,32.0,32.0,32.0,1.0,33.0,Riley,Rej,Participant_Images/60dbf4d94a3b5564b68881e8/60dbf4d94a3b5564b68881e8_Images/60dbf4d94a3b5564b68881e8_Image_22.jpeg,did not like,3.470791822,,,,,,,,,,,,
60dbf4d94a3b5564b68881e8,,,,,,,space,0.6778,NAN,,NAN,,0.0,33.0,33.0,33.0,1.0,34.0,Riley,Rej,Participant_Images/60dbf4d94a3b5564b68881e8/60dbf4d94a3b5564b68881e8_Images/60dbf4d94a3b5564b68881e8_Image_7.jpeg,did not like,3.820572462,,,,,,,,,,,,
60dbf4d94a3b5564b68881e8,,,,,,,,,,,,,,,,,,,,,,,,c,0.0,space,0.5223,0.0,0.0,0.0,0.0,1.0,1.178,,
60dbf4d94a3b5564b68881e8,,,,,,,,,NAN,,NAN,,0.0,34.0,34.0,34.0,1.0,35.0,Riley,Rej,Participant_Images/60dbf4d94a3b5564b68881e8/60dbf4d94a3b5564b68881e8_Images/60dbf4d94a3b5564b68881e8_Image_24.jpeg,liked,2.455989137,,,,,,,,,,,,
60dbf4d94a3b5564b68881e8,,,,,,,space,0.583,NAN,,NAN,,0.0,35.0,35.0,35.0,1.0,36.0,Riley,Rej,Participant_Images/60dbf4d94a3b5564b68881e8/60dbf4d94a3b5564b68881e8_Images/60dbf4d94a3b5564b68881e8_Image_30.jpeg,liked,3.79605092,,,,,,,,,,,,
60dbf4d94a3b5564b68881e8,,,,,,,space,0.6008,NAN,,NAN,,0.0,36.0,36.0,36.0,1.0,37.0,Riley,Rej,Participant_Images/60dbf4d94a3b5564b68881e8/60dbf4d94a3b5564b68881e8_Images/60dbf4d94a3b5564b68881e8_Image_26.jpeg,liked,3.562416326,,,,,,,,,,,,
60dbf4d94a3b5564b68881e8,,,,,,,space,0.5674,NAN,,NAN,,0.0,37.0,37.0,37.0,1.0,38.0,Riley,Rej,Participant_Images/60dbf4d94a3b5564b68881e8/60dbf4d94a3b5564b68881e8_Images/60dbf4d94a3b5564b68881e8_Image_12.jpeg,liked,2.843822497,,,,,,,,,,,,
60dbf4d94a3b5564b68881e8,,,,,,,space,0.572,NAN,,NAN,,0.0,38.0,38.0,38.0,1.0,39.0,Riley,Rej,Participant_Images/60dbf4d94a3b5564b68881e8/60dbf4d94a3b5564b68881e8_Images/60dbf4d94a3b5564b68881e8_Image_19.jpeg,did not like,3.546495948,,,,,,,,,,,,
60dbf4d94a3b5564b68881e8,,,,,,,,,,,,,,,,,,,,,,,,c,0.0,space,0.4391,0.0,0.0,0.0,0.0,1.0,0.5485,,
60dbf4d94a3b5564b68881e8,,,,,,,,,NAN,,NAN,,0.0,39.0,39.0,39.0,1.0,40.0,Riley,Rej,Participant_Images/60dbf4d94a3b5564b68881e8/60dbf4d94a3b5564b68881e8_Images/60dbf4d94a3b5564b68881e8_Image_28.jpeg,did not like,1.672012706,,,,,,,,,,,,
60dbf4d94a3b5564b68881e8,,,,,,,space,0.4239,NAN,,NAN,,0.0,40.0,40.0,40.0,1.0,41.0,Riley,Rej,Participant_Images/60dbf4d94a3b5564b68881e8/60dbf4d94a3b5564b68881e8_Images/60dbf4d94a3b5564b68881e8_Image_5.jpeg,did not like,4.942172136,,,,,,,,,,,,
60dbf4d94a3b5564b68881e8,,,,,,,space,0.6396,NAN,,NAN,,0.0,41.0,41.0,41.0,1.0,42.0,Riley,Rej,Participant_Images/60dbf4d94a3b5564b68881e8/60dbf4d94a3b5564b68881e8_Images/60dbf4d94a3b5564b68881e8_Image_16.jpeg,did not like,2.50187214,,,,,,,,,,,,
60dbf4d94a3b5564b68881e8,,,,,,,space,0.5645,NAN,,NAN,,0.0,42.0,42.0,42.0,1.0,43.0,Riley,Rej,Participant_Images/60dbf4d94a3b5564b68881e8/60dbf4d94a3b5564b68881e8_Images/60dbf4d94a3b5564b68881e8_Image_29.jpeg,did not like,2.071164779,,,,,,,,,,,,
60dbf4d94a3b5564b68881e8,,,,,,,space,0.5296,NAN,,NAN,,0.0,43.0,43.0,43.0,1.0,44.0,Riley,Rej,Participant_Images/60dbf4d94a3b5564b68881e8/60dbf4d94a3b5564b68881e8_Images/60dbf4d94a3b5564b68881e8_Image_27.jpeg,did not like,5.336503566,,,,,,,,,,,,
60dbf4d94a3b5564b68881e8,,,,,,,,,,,,,,,,,,,,,,,,c,0.0,space,0.5329,0.0,0.0,0.0,0.0,1.0,1.0857,,
60dbf4d94a3b5564b68881e8,,,,,,,,,NAN,,NAN,,0.0,44.0,44.0,44.0,1.0,45.0,Riley,Rej,Participant_Images/60dbf4d94a3b5564b68881e8/60dbf4d94a3b5564b68881e8_Images/60dbf4d94a3b5564b68881e8_Image_8.jpeg,did not like,2.642157193,,,,,,,,,,,,
60dbf4d94a3b5564b68881e8,,,,,,,space,0.4328,NAN,,NAN,,0.0,45.0,45.0,45.0,1.0,46.0,Riley,Rej,Participant_Images/60dbf4d94a3b5564b68881e8/60dbf4d94a3b5564b68881e8_Images/60dbf4d94a3b5564b68881e8_Image_21.jpeg,did not like,4.456234322,,,,,,,,,,,,
60dbf4d94a3b5564b68881e8,,,,,,,space,0.4288,NAN,,NAN,,0.0,46.0,46.0,46.0,1.0,47.0,Riley,Rej,Participant_Images/60dbf4d94a3b5564b68881e8/60dbf4d94a3b5564b68881e8_Images/60dbf4d94a3b5564b68881e8_Image_10.jpeg,did not like,4.438512181,,,,,,,,,,,,
60dbf4d94a3b5564b68881e8,,,,,,,space,0.5589,NAN,,NAN,,0.0,47.0,47.0,47.0,1.0,48.0,Riley,Rej,Participant_Images/60dbf4d94a3b5564b68881e8/60dbf4d94a3b5564b68881e8_Images/60dbf4d94a3b5564b68881e8_Image_6.jpeg,did not like,2.682944783,,,,,,,,,,,,
60dbf4d94a3b5564b68881e8,,,,,,,space,0.615,NAN,,NAN,,0.0,48.0,48.0,48.0,1.0,49.0,Riley,Rej,Participant_Images/60dbf4d94a3b5564b68881e8/60dbf4d94a3b5564b68881e8_Images/60dbf4d94a3b5564b68881e8_Image_18.jpeg,liked,4.51984296,,,,,,,,,,,,
60dbf4d94a3b5564b68881e8,,,,,,,,,,,,,,,,,,,,,,,,c,0.0,space,0.6121,0.0,0.0,0.0,0.0,1.0,1.4442,,
60dbf4d94a3b5564b68881e8,,,,,,,,,NAN,,NAN,,0.0,49.0,49.0,49.0,1.0,50.0,Riley,Rej,Participant_Images/60dbf4d94a3b5564b68881e8/60dbf4d94a3b5564b68881e8_Images/60dbf4d94a3b5564b68881e8_Image_4.jpeg,did not like,3.195382774,,,,,,,,,,,,
60dbf4d94a3b5564b68881e8,,,,,,,space,0.7785,NAN,,NAN,,0.0,50.0,50.0,50.0,1.0,51.0,Riley,Rej,Participant_Images/60dbf4d94a3b5564b68881e8/60dbf4d94a3b5564b68881e8_Images/60dbf4d94a3b5564b68881e8_Image_25.jpeg,liked,1.779333479,,,,,,,,,,,,
60dbf4d94a3b5564b68881e8,,,,,,,space,0.3297,NAN,,NAN,,0.0,51.0,51.0,51.0,1.0,52.0,Riley,Rej,Participant_Images/60dbf4d94a3b5564b68881e8/60dbf4d94a3b5564b68881e8_Images/60dbf4d94a3b5564b68881e8_Image_15.jpeg,did not like,4.312468682,,,,,,,,,,,,
60dbf4d94a3b5564b68881e8,,,,,,,space,0.4101,NAN,,NAN,,0.0,52.0,52.0,52.0,1.0,53.0,Riley,Rej,Participant_Images/60dbf4d94a3b5564b68881e8/60dbf4d94a3b5564b68881e8_Images/60dbf4d94a3b5564b68881e8_Image_9.jpeg,liked,4.940433059,,,,,,,,,,,,
60dbf4d94a3b5564b68881e8,,,,,,,space,0.4705,NAN,,NAN,,0.0,53.0,53.0,53.0,1.0,54.0,Riley,Rej,Participant_Images/60dbf4d94a3b5564b68881e8/60dbf4d94a3b5564b68881e8_Images/60dbf4d94a3b5564b68881e8_Image_2.jpeg,did not like,2.7105123,,,,,,,,,,,,
60dbf4d94a3b5564b68881e8,,,,,,,,,,,,,,,,,,,,,,,,c,0.0,space,0.6313,0.0,0.0,0.0,0.0,1.0,0.979,,
60dbf4d94a3b5564b68881e8,,,,,,,,,NAN,,NAN,,0.0,54.0,54.0,54.0,1.0,55.0,Riley,Rej,Participant_Images/60dbf4d94a3b5564b68881e8/60dbf4d94a3b5564b68881e8_Images/60dbf4d94a3b5564b68881e8_Image_3.jpeg,did not like,3.602308302,,,,,,,,,,,,
60dbf4d94a3b5564b68881e8,,,,,,,space,0.4931,NAN,,NAN,,0.0,55.0,55.0,55.0,1.0,56.0,Riley,Rej,Participant_Images/60dbf4d94a3b5564b68881e8/60dbf4d94a3b5564b68881e8_Images/60dbf4d94a3b5564b68881e8_Image_13.jpeg,did not like,4.106391878,,,,,,,,,,,,
60dbf4d94a3b5564b68881e8,,,,,,,space,0.7449,NAN,,NAN,,0.0,56.0,56.0,56.0,1.0,57.0,Riley,Rej,Participant_Images/60dbf4d94a3b5564b68881e8/60dbf4d94a3b5564b68881e8_Images/60dbf4d94a3b5564b68881e8_Image_17.jpeg,did not like,3.799433026,,,,,,,,,,,,
60dbf4d94a3b5564b68881e8,,,,,,,space,0.6281,NAN,,NAN,,0.0,57.0,57.0,57.0,1.0,58.0,Riley,Rej,Participant_Images/60dbf4d94a3b5564b68881e8/60dbf4d94a3b5564b68881e8_Images/60dbf4d94a3b5564b68881e8_Image_14.jpeg,liked,5.246980764,,,,,,,,,,,,
60dbf4d94a3b5564b68881e8,,,,,,,space,0.5119,NAN,,NAN,,0.0,58.0,58.0,58.0,1.0,59.0,Riley,Rej,Participant_Images/60dbf4d94a3b5564b68881e8/60dbf4d94a3b5564b68881e8_Images/60dbf4d94a3b5564b68881e8_Image_11.jpeg,liked,3.30081769,,,,,,,,,,,,
60dbf4d94a3b5564b68881e8,,,,,,,,,,,,,,,,,,,,,,,,c,0.0,space,0.552,0.0,0.0,0.0,0.0,1.0,1.2403,,
60dbf4d94a3b5564b68881e8,,,,,,,,,2,,7,,0.0,59.0,59.0,59.0,1.0,60.0,Riley,Rej,Participant_Images/60dbf4d94a3b5564b68881e8/60dbf4d94a3b5564b68881e8_Images/60dbf4d94a3b5564b68881e8_Image_20.jpeg,did not like,1.661473164,,,,,,,,,,,,
60dbf4d94a3b5564b68881e8,,,,,space,1.9351,space,0.4707,NAN,,NAN,,0.0,60.0,60.0,60.0,1.0,61.0,Alex,Neutral,Participant_Images/60dbf4d94a3b5564b68881e8/60dbf4d94a3b5564b68881e8_Images/60dbf4d94a3b5564b68881e8_Image_1.jpeg,did not like,3.613205605,,,,,,,,,,,,
60dbf4d94a3b5564b68881e8,,,,,,,space,0.3712,NAN,,NAN,,0.0,61.0,61.0,61.0,1.0,62.0,Alex,Neutral,Participant_Images/60dbf4d94a3b5564b68881e8/60dbf4d94a3b5564b68881e8_Images/60dbf4d94a3b5564b68881e8_Image_27.jpeg,liked,4.988446431,,,,,,,,,,,,
60dbf4d94a3b5564b68881e8,,,,,,,space,0.3252,NAN,,NAN,,0.0,62.0,62.0,62.0,1.0,63.0,Alex,Neutral,Participant_Images/60dbf4d94a3b5564b68881e8/60dbf4d94a3b5564b68881e8_Images/60dbf4d94a3b5564b68881e8_Image_24.jpeg,did not like,3.470791822,,,,,,,,,,,,
60dbf4d94a3b5564b68881e8,,,,,,,space,0.6553,NAN,,NAN,,0.0,63.0,63.0,63.0,1.0,64.0,Alex,Neutral,Participant_Images/60dbf4d94a3b5564b68881e8/60dbf4d94a3b5564b68881e8_Images/60dbf4d94a3b5564b68881e8_Image_6.jpeg,liked,3.820572462,,,,,,,,,,,,
60dbf4d94a3b5564b68881e8,,,,,,,,,,,,,,,,,,,,,,,,c,0.0,space,2.1344,0.0,0.0,0.0,0.0,1.0,2.148,,
60dbf4d94a3b5564b68881e8,,,,,,,,,NAN,,NAN,,0.0,64.0,64.0,64.0,1.0,65.0,Alex,Neutral,Participant_Images/60dbf4d94a3b5564b68881e8/60dbf4d94a3b5564b68881e8_Images/60dbf4d94a3b5564b68881e8_Image_7.jpeg,did not like,2.455989137,,,,,,,,,,,,
60dbf4d94a3b5564b68881e8,,,,,,,space,0.6645,NAN,,NAN,,0.0,65.0,65.0,65.0,1.0,66.0,Alex,Neutral,Participant_Images/60dbf4d94a3b5564b68881e8/60dbf4d94a3b5564b68881e8_Images/60dbf4d94a3b5564b68881e8_Image_30.jpeg,liked,3.79605092,,,,,,,,,,,,
60dbf4d94a3b5564b68881e8,,,,,,,space,0.8492,NAN,,NAN,,0.0,66.0,66.0,66.0,1.0,67.0,Alex,Neutral,Participant_Images/60dbf4d94a3b5564b68881e8/60dbf4d94a3b5564b68881e8_Images/60dbf4d94a3b5564b68881e8_Image_21.jpeg,liked,3.562416326,,,,,,,,,,,,
60dbf4d94a3b5564b68881e8,,,,,,,space,1.7007,NAN,,NAN,,0.0,67.0,67.0,67.0,1.0,68.0,Alex,Neutral,Participant_Images/60dbf4d94a3b5564b68881e8/60dbf4d94a3b5564b68881e8_Images/60dbf4d94a3b5564b68881e8_Image_11.jpeg,did not like,2.843822497,,,,,,,,,,,,
60dbf4d94a3b5564b68881e8,,,,,,,space,0.7643,NAN,,NAN,,0.0,68.0,68.0,68.0,1.0,69.0,Alex,Neutral,Participant_Images/60dbf4d94a3b5564b68881e8/60dbf4d94a3b5564b68881e8_Images/60dbf4d94a3b5564b68881e8_Image_16.jpeg,did not like,3.546495948,,,,,,,,,,,,
60dbf4d94a3b5564b68881e8,,,,,,,,,,,,,,,,,,,,,,,,c,0.0,space,0.7263,0.0,0.0,0.0,0.0,1.0,1.0138,,
60dbf4d94a3b5564b68881e8,,,,,,,,,NAN,,NAN,,0.0,69.0,69.0,69.0,1.0,70.0,Alex,Neutral,Participant_Images/60dbf4d94a3b5564b68881e8/60dbf4d94a3b5564b68881e8_Images/60dbf4d94a3b5564b68881e8_Image_12.jpeg,liked,1.672012706,,,,,,,,,,,,
60dbf4d94a3b5564b68881e8,,,,,,,space,0.4427,NAN,,NAN,,0.0,70.0,70.0,70.0,1.0,71.0,Alex,Neutral,Participant_Images/60dbf4d94a3b5564b68881e8/60dbf4d94a3b5564b68881e8_Images/60dbf4d94a3b5564b68881e8_Image_29.jpeg,liked,4.942172136,,,,,,,,,,,,
60dbf4d94a3b5564b68881e8,,,,,,,space,0.6118,NAN,,NAN,,0.0,71.0,71.0,71.0,1.0,72.0,Alex,Neutral,Participant_Images/60dbf4d94a3b5564b68881e8/60dbf4d94a3b5564b68881e8_Images/60dbf4d94a3b5564b68881e8_Image_4.jpeg,liked,2.50187214,,,,,,,,,,,,
60dbf4d94a3b5564b68881e8,,,,,,,space,1.9408,NAN,,NAN,,0.0,72.0,72.0,72.0,1.0,73.0,Alex,Neutral,Participant_Images/60dbf4d94a3b5564b68881e8/60dbf4d94a3b5564b68881e8_Images/60dbf4d94a3b5564b68881e8_Image_9.jpeg,liked,2.071164779,,,,,,,,,,,,
60dbf4d94a3b5564b68881e8,,,,,,,space,0.4328,NAN,,NAN,,0.0,73.0,73.0,73.0,1.0,74.0,Alex,Neutral,Participant_Images/60dbf4d94a3b5564b68881e8/60dbf4d94a3b5564b68881e8_Images/60dbf4d94a3b5564b68881e8_Image_15.jpeg,did not like,5.336503566,,,,,,,,,,,,
60dbf4d94a3b5564b68881e8,,,,,,,,,,,,,,,,,,,,,,,,c,0.0,space,1.0297,0.0,0.0,0.0,0.0,1.0,1.5767,,
60dbf4d94a3b5564b68881e8,,,,,,,,,NAN,,NAN,,0.0,74.0,74.0,74.0,1.0,75.0,Alex,Neutral,Participant_Images/60dbf4d94a3b5564b68881e8/60dbf4d94a3b5564b68881e8_Images/60dbf4d94a3b5564b68881e8_Image_14.jpeg,did not like,2.642157193,,,,,,,,,,,,
60dbf4d94a3b5564b68881e8,,,,,,,space,0.8068,NAN,,NAN,,0.0,75.0,75.0,75.0,1.0,76.0,Alex,Neutral,Participant_Images/60dbf4d94a3b5564b68881e8/60dbf4d94a3b5564b68881e8_Images/60dbf4d94a3b5564b68881e8_Image_23.jpeg,liked,4.456234322,,,,,,,,,,,,
60dbf4d94a3b5564b68881e8,,,,,,,space,0.8402,NAN,,NAN,,0.0,76.0,76.0,76.0,1.0,77.0,Alex,Neutral,Participant_Images/60dbf4d94a3b5564b68881e8/60dbf4d94a3b5564b68881e8_Images/60dbf4d94a3b5564b68881e8_Image_25.jpeg,did not like,4.438512181,,,,,,,,,,,,
60dbf4d94a3b5564b68881e8,,,,,,,space,1.896,NAN,,NAN,,0.0,77.0,77.0,77.0,1.0,78.0,Alex,Neutral,Participant_Images/60dbf4d94a3b5564b68881e8/60dbf4d94a3b5564b68881e8_Images/60dbf4d94a3b5564b68881e8_Image_10.jpeg,did not like,2.682944783,,,,,,,,,,,,
60dbf4d94a3b5564b68881e8,,,,,,,space,0.7419,NAN,,NAN,,0.0,78.0,78.0,78.0,1.0,79.0,Alex,Neutral,Participant_Images/60dbf4d94a3b5564b68881e8/60dbf4d94a3b5564b68881e8_Images/60dbf4d94a3b5564b68881e8_Image_3.jpeg,liked,4.51984296,,,,,,,,,,,,
60dbf4d94a3b5564b68881e8,,,,,,,,,,,,,,,,,,,,,,,,c,0.0,space,0.9944,0.0,0.0,0.0,0.0,1.0,1.4963,,
60dbf4d94a3b5564b68881e8,,,,,,,,,NAN,,NAN,,0.0,79.0,79.0,79.0,1.0,80.0,Alex,Neutral,Participant_Images/60dbf4d94a3b5564b68881e8/60dbf4d94a3b5564b68881e8_Images/60dbf4d94a3b5564b68881e8_Image_28.jpeg,did not like,3.195382774,,,,,,,,,,,,
60dbf4d94a3b5564b68881e8,,,,,,,space,0.9678,NAN,,NAN,,0.0,80.0,80.0,80.0,1.0,81.0,Alex,Neutral,Participant_Images/60dbf4d94a3b5564b68881e8/60dbf4d94a3b5564b68881e8_Images/60dbf4d94a3b5564b68881e8_Image_18.jpeg,liked,1.779333479,,,,,,,,,,,,
60dbf4d94a3b5564b68881e8,,,,,,,space,0.8106,NAN,,NAN,,0.0,81.0,81.0,81.0,1.0,82.0,Alex,Neutral,Participant_Images/60dbf4d94a3b5564b68881e8/60dbf4d94a3b5564b68881e8_Images/60dbf4d94a3b5564b68881e8_Image_26.jpeg,did not like,4.312468682,,,,,,,,,,,,
60dbf4d94a3b5564b68881e8,,,,,,,space,0.5165,NAN,,NAN,,0.0,82.0,82.0,82.0,1.0,83.0,Alex,Neutral,Participant_Images/60dbf4d94a3b5564b68881e8/60dbf4d94a3b5564b68881e8_Images/60dbf4d94a3b5564b68881e8_Image_8.jpeg,did not like,4.940433059,,,,,,,,,,,,
60dbf4d94a3b5564b68881e8,,,,,,,space,0.6941,NAN,,NAN,,0.0,83.0,83.0,83.0,1.0,84.0,Alex,Neutral,Participant_Images/60dbf4d94a3b5564b68881e8/60dbf4d94a3b5564b68881e8_Images/60dbf4d94a3b5564b68881e8_Image_13.jpeg,did not like,2.7105123,,,,,,,,,,,,
60dbf4d94a3b5564b68881e8,,,,,,,,,,,,,,,,,,,,,,,,c,0.0,space,0.7404,0.0,0.0,0.0,0.0,1.0,1.1129,,
60dbf4d94a3b5564b68881e8,,,,,,,,,NAN,,NAN,,0.0,84.0,84.0,84.0,1.0,85.0,Alex,Neutral,Participant_Images/60dbf4d94a3b5564b68881e8/60dbf4d94a3b5564b68881e8_Images/60dbf4d94a3b5564b68881e8_Image_17.jpeg,liked,3.602308302,,,,,,,,,,,,
60dbf4d94a3b5564b68881e8,,,,,,,space,0.5745,NAN,,NAN,,0.0,85.0,85.0,85.0,1.0,86.0,Alex,Neutral,Participant_Images/60dbf4d94a3b5564b68881e8/60dbf4d94a3b5564b68881e8_Images/60dbf4d94a3b5564b68881e8_Image_2.jpeg,liked,4.106391878,,,,,,,,,,,,
60dbf4d94a3b5564b68881e8,,,,,,,space,0.4233,NAN,,NAN,,0.0,86.0,86.0,86.0,1.0,87.0,Alex,Neutral,Participant_Images/60dbf4d94a3b5564b68881e8/60dbf4d94a3b5564b68881e8_Images/60dbf4d94a3b5564b68881e8_Image_19.jpeg,liked,3.799433026,,,,,,,,,,,,
60dbf4d94a3b5564b68881e8,,,,,,,space,0.6588,NAN,,NAN,,0.0,87.0,87.0,87.0,1.0,88.0,Alex,Neutral,Participant_Images/60dbf4d94a3b5564b68881e8/60dbf4d94a3b5564b68881e8_Images/60dbf4d94a3b5564b68881e8_Image_20.jpeg,did not like,5.246980764,,,,,,,,,,,,
60dbf4d94a3b5564b68881e8,,,,,,,space,0.8587,NAN,,NAN,,0.0,88.0,88.0,88.0,1.0,89.0,Alex,Neutral,Participant_Images/60dbf4d94a3b5564b68881e8/60dbf4d94a3b5564b68881e8_Images/60dbf4d94a3b5564b68881e8_Image_22.jpeg,did not like,3.30081769,,,,,,,,,,,,
60dbf4d94a3b5564b68881e8,,,,,,,,,,,,,,,,,,,,,,,,c,0.0,space,1.1081,0.0,0.0,0.0,0.0,1.0,2.9865,,
60dbf4d94a3b5564b68881e8,,,,,,,,,1,,6,,0.0,89.0,89.0,89.0,1.0,90.0,Alex,Neutral,Participant_Images/60dbf4d94a3b5564b68881e8/60dbf4d94a3b5564b68881e8_Images/60dbf4d94a3b5564b68881e8_Image_5.jpeg,liked,1.661473164,,,,,,,,,,,,
60dbf4d94a3b5564b68881e8,,,,,space,2.4012,space,0.778,NAN,,NAN,,0.0,90.0,90.0,90.0,1.0,91.0,Sam,Acc,Participant_Images/60dbf4d94a3b5564b68881e8/60dbf4d94a3b5564b68881e8_Images/60dbf4d94a3b5564b68881e8_Image_20.jpeg,liked,3.613205605,,,,,,,,,,,,
60dbf4d94a3b5564b68881e8,,,,,,,space,0.6564,NAN,,NAN,,0.0,91.0,91.0,91.0,1.0,92.0,Sam,Acc,Participant_Images/60dbf4d94a3b5564b68881e8/60dbf4d94a3b5564b68881e8_Images/60dbf4d94a3b5564b68881e8_Image_23.jpeg,liked,4.988446431,,,,,,,,,,,,
60dbf4d94a3b5564b68881e8,,,,,,,space,0.8025,NAN,,NAN,,0.0,92.0,92.0,92.0,1.0,93.0,Sam,Acc,Participant_Images/60dbf4d94a3b5564b68881e8/60dbf4d94a3b5564b68881e8_Images/60dbf4d94a3b5564b68881e8_Image_12.jpeg,liked,3.470791822,,,,,,,,,,,,
60dbf4d94a3b5564b68881e8,,,,,,,space,1.2354,NAN,,NAN,,0.0,93.0,93.0,93.0,1.0,94.0,Sam,Acc,Participant_Images/60dbf4d94a3b5564b68881e8/60dbf4d94a3b5564b68881e8_Images/60dbf4d94a3b5564b68881e8_Image_16.jpeg,liked,3.820572462,,,,,,,,,,,,
60dbf4d94a3b5564b68881e8,,,,,,,,,,,,,,,,,,,,,,,,c,0.0,space,1.208,0.0,0.0,0.0,0.0,1.0,1.5544,,
60dbf4d94a3b5564b68881e8,,,,,,,,,NAN,,NAN,,0.0,94.0,94.0,94.0,1.0,95.0,Sam,Acc,Participant_Images/60dbf4d94a3b5564b68881e8/60dbf4d94a3b5564b68881e8_Images/60dbf4d94a3b5564b68881e8_Image_5.jpeg,liked,2.455989137,,,,,,,,,,,,
60dbf4d94a3b5564b68881e8,,,,,,,space,0.6413,NAN,,NAN,,0.0,95.0,95.0,95.0,1.0,96.0,Sam,Acc,Participant_Images/60dbf4d94a3b5564b68881e8/60dbf4d94a3b5564b68881e8_Images/60dbf4d94a3b5564b68881e8_Image_10.jpeg,liked,3.79605092,,,,,,,,,,,,
60dbf4d94a3b5564b68881e8,,,,,,,space,0.7803,NAN,,NAN,,0.0,96.0,96.0,96.0,1.0,97.0,Sam,Acc,Participant_Images/60dbf4d94a3b5564b68881e8/60dbf4d94a3b5564b68881e8_Images/60dbf4d94a3b5564b68881e8_Image_7.jpeg,liked,3.562416326,,,,,,,,,,,,
60dbf4d94a3b5564b68881e8,,,,,,,space,1.1849,NAN,,NAN,,0.0,97.0,97.0,97.0,1.0,98.0,Sam,Acc,Participant_Images/60dbf4d94a3b5564b68881e8/60dbf4d94a3b5564b68881e8_Images/60dbf4d94a3b5564b68881e8_Image_24.jpeg,liked,2.843822497,,,,,,,,,,,,
60dbf4d94a3b5564b68881e8,,,,,,,space,1.0567,NAN,,NAN,,0.0,98.0,98.0,98.0,1.0,99.0,Sam,Acc,Participant_Images/60dbf4d94a3b5564b68881e8/60dbf4d94a3b5564b68881e8_Images/60dbf4d94a3b5564b68881e8_Image_21.jpeg,did not like,3.546495948,,,,,,,,,,,,
60dbf4d94a3b5564b68881e8,,,,,,,,,,,,,,,,,,,,,,,,c,0.0,space,1.1647,0.0,0.0,0.0,0.0,1.0,1.0602,,
60dbf4d94a3b5564b68881e8,,,,,,,,,NAN,,NAN,,0.0,99.0,99.0,99.0,1.0,100.0,Sam,Acc,Participant_Images/60dbf4d94a3b5564b68881e8/60dbf4d94a3b5564b68881e8_Images/60dbf4d94a3b5564b68881e8_Image_9.jpeg,liked,1.672012706,,,,,,,,,,,,
60dbf4d94a3b5564b68881e8,,,,,,,space,0.3753,NAN,,NAN,,0.0,100.0,100.0,100.0,1.0,101.0,Sam,Acc,Participant_Images/60dbf4d94a3b5564b68881e8/60dbf4d94a3b5564b68881e8_Images/60dbf4d94a3b5564b68881e8_Image_27.jpeg,liked,4.942172136,,,,,,,,,,,,
60dbf4d94a3b5564b68881e8,,,,,,,space,0.8028,NAN,,NAN,,0.0,101.0,101.0,101.0,1.0,102.0,Sam,Acc,Participant_Images/60dbf4d94a3b5564b68881e8/60dbf4d94a3b5564b68881e8_Images/60dbf4d94a3b5564b68881e8_Image_11.jpeg,liked,2.50187214,,,,,,,,,,,,
60dbf4d94a3b5564b68881e8,,,,,,,space,0.4933,NAN,,NAN,,0.0,102.0,102.0,102.0,1.0,103.0,Sam,Acc,Participant_Images/60dbf4d94a3b5564b68881e8/60dbf4d94a3b5564b68881e8_Images/60dbf4d94a3b5564b68881e8_Image_18.jpeg,liked,2.071164779,,,,,,,,,,,,
60dbf4d94a3b5564b68881e8,,,,,,,space,0.8907,NAN,,NAN,,0.0,103.0,103.0,103.0,1.0,104.0,Sam,Acc,Participant_Images/60dbf4d94a3b5564b68881e8/60dbf4d94a3b5564b68881e8_Images/60dbf4d94a3b5564b68881e8_Image_8.jpeg,liked,5.336503566,,,,,,,,,,,,
60dbf4d94a3b5564b68881e8,,,,,,,,,,,,,,,,,,,,,,,,c,0.0,space,1.1829,0.0,0.0,0.0,0.0,1.0,1.2236,,
60dbf4d94a3b5564b68881e8,,,,,,,,,NAN,,NAN,,0.0,104.0,104.0,104.0,1.0,105.0,Sam,Acc,Participant_Images/60dbf4d94a3b5564b68881e8/60dbf4d94a3b5564b68881e8_Images/60dbf4d94a3b5564b68881e8_Image_14.jpeg,liked,2.642157193,,,,,,,,,,,,
60dbf4d94a3b5564b68881e8,,,,,,,space,0.4592,NAN,,NAN,,0.0,105.0,105.0,105.0,1.0,106.0,Sam,Acc,Participant_Images/60dbf4d94a3b5564b68881e8/60dbf4d94a3b5564b68881e8_Images/60dbf4d94a3b5564b68881e8_Image_3.jpeg,did not like,4.456234322,,,,,,,,,,,,
60dbf4d94a3b5564b68881e8,,,,,,,space,0.5218,NAN,,NAN,,0.0,106.0,106.0,106.0,1.0,107.0,Sam,Acc,Participant_Images/60dbf4d94a3b5564b68881e8/60dbf4d94a3b5564b68881e8_Images/60dbf4d94a3b5564b68881e8_Image_15.jpeg,did not like,4.438512181,,,,,,,,,,,,
60dbf4d94a3b5564b68881e8,,,,,,,space,0.7258,NAN,,NAN,,0.0,107.0,107.0,107.0,1.0,108.0,Sam,Acc,Participant_Images/60dbf4d94a3b5564b68881e8/60dbf4d94a3b5564b68881e8_Images/60dbf4d94a3b5564b68881e8_Image_13.jpeg,did not like,2.682944783,,,,,,,,,,,,
60dbf4d94a3b5564b68881e8,,,,,,,space,0.5728,NAN,,NAN,,0.0,108.0,108.0,108.0,1.0,109.0,Sam,Acc,Participant_Images/60dbf4d94a3b5564b68881e8/60dbf4d94a3b5564b68881e8_Images/60dbf4d94a3b5564b68881e8_Image_30.jpeg,liked,4.51984296,,,,,,,,,,,,
60dbf4d94a3b5564b68881e8,,,,,,,,,,,,,,,,,,,,,,,,c,0.0,space,0.5793,0.0,0.0,0.0,0.0,1.0,1.2207,,
60dbf4d94a3b5564b68881e8,,,,,,,,,NAN,,NAN,,0.0,109.0,109.0,109.0,1.0,110.0,Sam,Acc,Participant_Images/60dbf4d94a3b5564b68881e8/60dbf4d94a3b5564b68881e8_Images/60dbf4d94a3b5564b68881e8_Image_19.jpeg,did not like,3.195382774,,,,,,,,,,,,
60dbf4d94a3b5564b68881e8,,,,,,,space,1.2749,NAN,,NAN,,0.0,110.0,110.0,110.0,1.0,111.0,Sam,Acc,Participant_Images/60dbf4d94a3b5564b68881e8/60dbf4d94a3b5564b68881e8_Images/60dbf4d94a3b5564b68881e8_Image_28.jpeg,liked,1.779333479,,,,,,,,,,,,
60dbf4d94a3b5564b68881e8,,,,,,,space,0.3084,NAN,,NAN,,0.0,111.0,111.0,111.0,1.0,112.0,Sam,Acc,Participant_Images/60dbf4d94a3b5564b68881e8/60dbf4d94a3b5564b68881e8_Images/60dbf4d94a3b5564b68881e8_Image_25.jpeg,did not like,4.312468682,,,,,,,,,,,,
60dbf4d94a3b5564b68881e8,,,,,,,space,0.8912,NAN,,NAN,,0.0,112.0,112.0,112.0,1.0,113.0,Sam,Acc,Participant_Images/60dbf4d94a3b5564b68881e8/60dbf4d94a3b5564b68881e8_Images/60dbf4d94a3b5564b68881e8_Image_17.jpeg,liked,4.940433059,,,,,,,,,,,,
60dbf4d94a3b5564b68881e8,,,,,,,space,0.7929,NAN,,NAN,,0.0,113.0,113.0,113.0,1.0,114.0,Sam,Acc,Participant_Images/60dbf4d94a3b5564b68881e8/60dbf4d94a3b5564b68881e8_Images/60dbf4d94a3b5564b68881e8_Image_1.jpeg,liked,2.7105123,,,,,,,,,,,,
60dbf4d94a3b5564b68881e8,,,,,,,,,,,,,,,,,,,,,,,,c,0.0,space,0.9681,0.0,0.0,0.0,0.0,1.0,1.1423,,
60dbf4d94a3b5564b68881e8,,,,,,,,,NAN,,NAN,,0.0,114.0,114.0,114.0,1.0,115.0,Sam,Acc,Participant_Images/60dbf4d94a3b5564b68881e8/60dbf4d94a3b5564b68881e8_Images/60dbf4d94a3b5564b68881e8_Image_22.jpeg,did not like,3.602308302,,,,,,,,,,,,
60dbf4d94a3b5564b68881e8,,,,,,,space,0.6758,NAN,,NAN,,0.0,115.0,115.0,115.0,1.0,116.0,Sam,Acc,Participant_Images/60dbf4d94a3b5564b68881e8/60dbf4d94a3b5564b68881e8_Images/60dbf4d94a3b5564b68881e8_Image_29.jpeg,did not like,4.106391878,,,,,,,,,,,,
60dbf4d94a3b5564b68881e8,,,,,,,space,0.8244,NAN,,NAN,,0.0,116.0,116.0,116.0,1.0,117.0,Sam,Acc,Participant_Images/60dbf4d94a3b5564b68881e8/60dbf4d94a3b5564b68881e8_Images/60dbf4d94a3b5564b68881e8_Image_26.jpeg,liked,3.799433026,,,,,,,,,,,,
60dbf4d94a3b5564b68881e8,,,,,,,space,0.94,NAN,,NAN,,0.0,117.0,117.0,117.0,1.0,118.0,Sam,Acc,Participant_Images/60dbf4d94a3b5564b68881e8/60dbf4d94a3b5564b68881e8_Images/60dbf4d94a3b5564b68881e8_Image_4.jpeg,liked,5.246980764,,,,,,,,,,,,
60dbf4d94a3b5564b68881e8,,,,,,,space,1.3182,NAN,,NAN,,0.0,118.0,118.0,118.0,1.0,119.0,Sam,Acc,Participant_Images/60dbf4d94a3b5564b68881e8/60dbf4d94a3b5564b68881e8_Images/60dbf4d94a3b5564b68881e8_Image_2.jpeg,did not like,3.30081769,,,,,,,,,,,,
60dbf4d94a3b5564b68881e8,,,,,,,,,,,,,,,,,,,,,,,,c,0.0,space,0.9984,0.0,0.0,0.0,0.0,1.0,0.8719,,
60dbf4d94a3b5564b68881e8,,,,,,,,,3,,6,,0.0,119.0,119.0,119.0,1.0,120.0,Sam,Acc,Participant_Images/60dbf4d94a3b5564b68881e8/60dbf4d94a3b5564b68881e8_Images/60dbf4d94a3b5564b68881e8_Image_6.jpeg,liked,1.661473164,,,,,,,,,,,,
60dbf4d94a3b5564b68881e8,,,,,space,1.7766,space,0.6406,NAN,,NAN,,0.0,120.0,120.0,120.0,1.0,121.0,Taylor,Acc,Participant_Images/60dbf4d94a3b5564b68881e8/60dbf4d94a3b5564b68881e8_Images/60dbf4d94a3b5564b68881e8_Image_25.jpeg,liked,3.613205605,,,,,,,,,,,,
60dbf4d94a3b5564b68881e8,,,,,,,space,0.6242,NAN,,NAN,,0.0,121.0,121.0,121.0,1.0,122.0,Taylor,Acc,Participant_Images/60dbf4d94a3b5564b68881e8/60dbf4d94a3b5564b68881e8_Images/60dbf4d94a3b5564b68881e8_Image_15.jpeg,liked,4.988446431,,,,,,,,,,,,
60dbf4d94a3b5564b68881e8,,,,,,,space,0.8346,NAN,,NAN,,0.0,122.0,122.0,122.0,1.0,123.0,Taylor,Acc,Participant_Images/60dbf4d94a3b5564b68881e8/60dbf4d94a3b5564b68881e8_Images/60dbf4d94a3b5564b68881e8_Image_27.jpeg,did not like,3.470791822,,,,,,,,,,,,
60dbf4d94a3b5564b68881e8,,,,,,,space,0.9008,NAN,,NAN,,0.0,123.0,123.0,123.0,1.0,124.0,Taylor,Acc,Participant_Images/60dbf4d94a3b5564b68881e8/60dbf4d94a3b5564b68881e8_Images/60dbf4d94a3b5564b68881e8_Image_7.jpeg,liked,3.820572462,,,,,,,,,,,,
60dbf4d94a3b5564b68881e8,,,,,,,,,,,,,,,,,,,,,,,,c,0.0,space,0.7332,0.0,0.0,0.0,0.0,1.0,1.2569,,
60dbf4d94a3b5564b68881e8,,,,,,,,,NAN,,NAN,,0.0,124.0,124.0,124.0,1.0,125.0,Taylor,Acc,Participant_Images/60dbf4d94a3b5564b68881e8/60dbf4d94a3b5564b68881e8_Images/60dbf4d94a3b5564b68881e8_Image_2.jpeg,did not like,2.455989137,,,,,,,,,,,,
60dbf4d94a3b5564b68881e8,,,,,,,space,0.7637,NAN,,NAN,,0.0,125.0,125.0,125.0,1.0,126.0,Taylor,Acc,Participant_Images/60dbf4d94a3b5564b68881e8/60dbf4d94a3b5564b68881e8_Images/60dbf4d94a3b5564b68881e8_Image_9.jpeg,liked,3.79605092,,,,,,,,,,,,
60dbf4d94a3b5564b68881e8,,,,,,,space,0.676,NAN,,NAN,,0.0,126.0,126.0,126.0,1.0,127.0,Taylor,Acc,Participant_Images/60dbf4d94a3b5564b68881e8/60dbf4d94a3b5564b68881e8_Images/60dbf4d94a3b5564b68881e8_Image_12.jpeg,liked,3.562416326,,,,,,,,,,,,
60dbf4d94a3b5564b68881e8,,,,,,,space,1.0269,NAN,,NAN,,0.0,127.0,127.0,127.0,1.0,128.0,Taylor,Acc,Participant_Images/60dbf4d94a3b5564b68881e8/60dbf4d94a3b5564b68881e8_Images/60dbf4d94a3b5564b68881e8_Image_17.jpeg,liked,2.843822497,,,,,,,,,,,,
60dbf4d94a3b5564b68881e8,,,,,,,space,0.5086,NAN,,NAN,,0.0,128.0,128.0,128.0,1.0,129.0,Taylor,Acc,Participant_Images/60dbf4d94a3b5564b68881e8/60dbf4d94a3b5564b68881e8_Images/60dbf4d94a3b5564b68881e8_Image_21.jpeg,did not like,3.546495948,,,,,,,,,,,,
60dbf4d94a3b5564b68881e8,,,,,,,,,,,,,,,,,,,,,,,,c,0.0,space,1.3006,0.0,0.0,0.0,0.0,1.0,1.1204,,
60dbf4d94a3b5564b68881e8,,,,,,,,,NAN,,NAN,,0.0,129.0,129.0,129.0,1.0,130.0,Taylor,Acc,Participant_Images/60dbf4d94a3b5564b68881e8/60dbf4d94a3b5564b68881e8_Images/60dbf4d94a3b5564b68881e8_Image_11.jpeg,did not like,1.672012706,,,,,,,,,,,,
60dbf4d94a3b5564b68881e8,,,,,,,space,0.7399,NAN,,NAN,,0.0,130.0,130.0,130.0,1.0,131.0,Taylor,Acc,Participant_Images/60dbf4d94a3b5564b68881e8/60dbf4d94a3b5564b68881e8_Images/60dbf4d94a3b5564b68881e8_Image_29.jpeg,liked,4.942172136,,,,,,,,,,,,
60dbf4d94a3b5564b68881e8,,,,,,,space,0.6999,NAN,,NAN,,0.0,131.0,131.0,131.0,1.0,132.0,Taylor,Acc,Participant_Images/60dbf4d94a3b5564b68881e8/60dbf4d94a3b5564b68881e8_Images/60dbf4d94a3b5564b68881e8_Image_10.jpeg,liked,2.50187214,,,,,,,,,,,,
60dbf4d94a3b5564b68881e8,,,,,,,space,0.7188,NAN,,NAN,,0.0,132.0,132.0,132.0,1.0,133.0,Taylor,Acc,Participant_Images/60dbf4d94a3b5564b68881e8/60dbf4d94a3b5564b68881e8_Images/60dbf4d94a3b5564b68881e8_Image_22.jpeg,did not like,2.071164779,,,,,,,,,,,,
60dbf4d94a3b5564b68881e8,,,,,,,space,0.8018,NAN,,NAN,,0.0,133.0,133.0,133.0,1.0,134.0,Taylor,Acc,Participant_Images/60dbf4d94a3b5564b68881e8/60dbf4d94a3b5564b68881e8_Images/60dbf4d94a3b5564b68881e8_Image_13.jpeg,liked,5.336503566,,,,,,,,,,,,
60dbf4d94a3b5564b68881e8,,,,,,,,,,,,,,,,,,,,,,,,c,0.0,space,0.7485,0.0,0.0,0.0,0.0,1.0,1.0887,,
60dbf4d94a3b5564b68881e8,,,,,,,,,NAN,,NAN,,0.0,134.0,134.0,134.0,1.0,135.0,Taylor,Acc,Participant_Images/60dbf4d94a3b5564b68881e8/60dbf4d94a3b5564b68881e8_Images/60dbf4d94a3b5564b68881e8_Image_20.jpeg,did not like,2.642157193,,,,,,,,,,,,
60dbf4d94a3b5564b68881e8,,,,,,,space,0.3489,NAN,,NAN,,0.0,135.0,135.0,135.0,1.0,136.0,Taylor,Acc,Participant_Images/60dbf4d94a3b5564b68881e8/60dbf4d94a3b5564b68881e8_Images/60dbf4d94a3b5564b68881e8_Image_6.jpeg,liked,4.456234322,,,,,,,,,,,,
60dbf4d94a3b5564b68881e8,,,,,,,space,1.941,NAN,,NAN,,0.0,136.0,136.0,136.0,1.0,137.0,Taylor,Acc,Participant_Images/60dbf4d94a3b5564b68881e8/60dbf4d94a3b5564b68881e8_Images/60dbf4d94a3b5564b68881e8_Image_23.jpeg,liked,4.438512181,,,,,,,,,,,,
60dbf4d94a3b5564b68881e8,,,,,,,space,0.7156,NAN,,NAN,,0.0,137.0,137.0,137.0,1.0,138.0,Taylor,Acc,Participant_Images/60dbf4d94a3b5564b68881e8/60dbf4d94a3b5564b68881e8_Images/60dbf4d94a3b5564b68881e8_Image_1.jpeg,liked,2.682944783,,,,,,,,,,,,
60dbf4d94a3b5564b68881e8,,,,,,,space,0.5351,NAN,,NAN,,0.0,138.0,138.0,138.0,1.0,139.0,Taylor,Acc,Participant_Images/60dbf4d94a3b5564b68881e8/60dbf4d94a3b5564b68881e8_Images/60dbf4d94a3b5564b68881e8_Image_19.jpeg,liked,4.51984296,,,,,,,,,,,,
60dbf4d94a3b5564b68881e8,,,,,,,,,,,,,,,,,,,,,,,,c,0.0,space,0.9346,0.0,0.0,0.0,0.0,1.0,1.5549,,
60dbf4d94a3b5564b68881e8,,,,,,,,,NAN,,NAN,,0.0,139.0,139.0,139.0,1.0,140.0,Taylor,Acc,Participant_Images/60dbf4d94a3b5564b68881e8/60dbf4d94a3b5564b68881e8_Images/60dbf4d94a3b5564b68881e8_Image_4.jpeg,did not like,3.195382774,,,,,,,,,,,,
60dbf4d94a3b5564b68881e8,,,,,,,space,0.6519,NAN,,NAN,,0.0,140.0,140.0,140.0,1.0,141.0,Taylor,Acc,Participant_Images/60dbf4d94a3b5564b68881e8/60dbf4d94a3b5564b68881e8_Images/60dbf4d94a3b5564b68881e8_Image_18.jpeg,liked,1.779333479,,,,,,,,,,,,
60dbf4d94a3b5564b68881e8,,,,,,,space,0.4909,NAN,,NAN,,0.0,141.0,141.0,141.0,1.0,142.0,Taylor,Acc,Participant_Images/60dbf4d94a3b5564b68881e8/60dbf4d94a3b5564b68881e8_Images/60dbf4d94a3b5564b68881e8_Image_3.jpeg,liked,4.312468682,,,,,,,,,,,,
60dbf4d94a3b5564b68881e8,,,,,,,space,0.6243,NAN,,NAN,,0.0,142.0,142.0,142.0,1.0,143.0,Taylor,Acc,Participant_Images/60dbf4d94a3b5564b68881e8/60dbf4d94a3b5564b68881e8_Images/60dbf4d94a3b5564b68881e8_Image_5.jpeg,liked,4.940433059,,,,,,,,,,,,
60dbf4d94a3b5564b68881e8,,,,,,,space,0.9495,NAN,,NAN,,0.0,143.0,143.0,143.0,1.0,144.0,Taylor,Acc,Participant_Images/60dbf4d94a3b5564b68881e8/60dbf4d94a3b5564b68881e8_Images/60dbf4d94a3b5564b68881e8_Image_14.jpeg,did not like,2.7105123,,,,,,,,,,,,
60dbf4d94a3b5564b68881e8,,,,,,,,,,,,,,,,,,,,,,,,c,0.0,space,0.9051,0.0,0.0,0.0,0.0,1.0,1.2314,,
60dbf4d94a3b5564b68881e8,,,,,,,,,NAN,,NAN,,0.0,144.0,144.0,144.0,1.0,145.0,Taylor,Acc,Participant_Images/60dbf4d94a3b5564b68881e8/60dbf4d94a3b5564b68881e8_Images/60dbf4d94a3b5564b68881e8_Image_16.jpeg,liked,3.602308302,,,,,,,,,,,,
60dbf4d94a3b5564b68881e8,,,,,,,space,0.7731,NAN,,NAN,,0.0,145.0,145.0,145.0,1.0,146.0,Taylor,Acc,Participant_Images/60dbf4d94a3b5564b68881e8/60dbf4d94a3b5564b68881e8_Images/60dbf4d94a3b5564b68881e8_Image_26.jpeg,liked,4.106391878,,,,,,,,,,,,
60dbf4d94a3b5564b68881e8,,,,,,,space,0.6576,NAN,,NAN,,0.0,146.0,146.0,146.0,1.0,147.0,Taylor,Acc,Participant_Images/60dbf4d94a3b5564b68881e8/60dbf4d94a3b5564b68881e8_Images/60dbf4d94a3b5564b68881e8_Image_30.jpeg,liked,3.799433026,,,,,,,,,,,,
60dbf4d94a3b5564b68881e8,,,,,,,space,0.5835,NAN,,NAN,,0.0,147.0,147.0,147.0,1.0,148.0,Taylor,Acc,Participant_Images/60dbf4d94a3b5564b68881e8/60dbf4d94a3b5564b68881e8_Images/60dbf4d94a3b5564b68881e8_Image_8.jpeg,did not like,5.246980764,,,,,,,,,,,,
60dbf4d94a3b5564b68881e8,,,,,,,space,0.4415,NAN,,NAN,,0.0,148.0,148.0,148.0,1.0,149.0,Taylor,Acc,Participant_Images/60dbf4d94a3b5564b68881e8/60dbf4d94a3b5564b68881e8_Images/60dbf4d94a3b5564b68881e8_Image_24.jpeg,liked,3.30081769,,,,,,,,,,,,
60dbf4d94a3b5564b68881e8,,,,,,,,,,,,,,,,,,,,,,,,c,0.0,space,0.5163,0.0,0.0,0.0,0.0,1.0,1.3546,,
60dbf4d94a3b5564b68881e8,,,,,,,,,2,,6,,0.0,149.0,149.0,149.0,1.0,150.0,Taylor,Acc,Participant_Images/60dbf4d94a3b5564b68881e8/60dbf4d94a3b5564b68881e8_Images/60dbf4d94a3b5564b68881e8_Image_28.jpeg,liked,1.661473164,,,,,,,,,,,,
60dbf4d94a3b5564b68881e8,,,,,,,,,,,,,,,,,,,,,,,,,,,,,,,,,,space,2.599
