endwelcomescreen_keys.keys,endwelcomescreen_keys.rt,endinstructionscreen_keys.keys,endinstructionscreen_keys.rt,endpartnermatch_keys.keys,endpartnermatch_keys.rt,sharenextphoto_key.keys,sharenextphoto_key.rt,salience_rating,key_resp.keys,stress_level,stresslevel_keypress.keys,entiretaskloop.thisRepN,entiretaskloop.thisTrialN,entiretaskloop.thisN,entiretaskloop.thisIndex,entiretaskloop.ran,TrialNumber,Partner,Condition,Photos,Feedback,FeedbackWait,choice_keys.keys,playlottery,choice_keys.rt,lotteryguess_keys.keys,resumeafterlottery_keys.keys,resumeafterlottery_keys.rt,lotteryloop.thisRepN,lotteryloop.thisTrialN,lotteryloop.thisN,lotteryloop.thisIndex,lotteryloop.ran,lotteryguess_keys.rt,end_screen_keys.keys,end_screen_keys.rt
space,10.007,,,,,,,,,,,,,,,,,,,,,,,,,,,,,,,,,,,
,,,,,,,,,,,,,,,,,,,,,,,,,,,,,,,,,,,,
,,space,10.3601,,,,,,,,,,,,,,,,,,,,,,,,,,,,,,,,,
,,,,space,27.4995,space,1.1999,NAN,,NAN,,0,0,0,0,1,1,Riley,Rej,Participant_Images/60ef2700e476748689a999f7/60ef2700e476748689a999f7_Images/60ef2700e476748689a999f7_Image_15.jpeg,did not like,3.613205605,,,,,,,,,,,,,,
,,,,,,space,1.2859,NAN,,NAN,,0,1,1,1,1,2,Riley,Rej,Participant_Images/60ef2700e476748689a999f7/60ef2700e476748689a999f7_Images/60ef2700e476748689a999f7_Image_25.jpeg,liked,4.988446431,,,,,,,,,,,,,,
,,,,,,space,1.4492,NAN,,NAN,,0,2,2,2,1,3,Riley,Rej,Participant_Images/60ef2700e476748689a999f7/60ef2700e476748689a999f7_Images/60ef2700e476748689a999f7_Image_11.jpeg,did not like,3.470791822,,,,,,,,,,,,,,
,,,,,,space,0.7334,NAN,,NAN,,0,3,3,3,1,4,Riley,Rej,Participant_Images/60ef2700e476748689a999f7/60ef2700e476748689a999f7_Images/60ef2700e476748689a999f7_Image_30.jpeg,did not like,3.820572462,,,,,,,,,,,,,,
,,,,,,,,,,,,,,,,,,,,,,,s,1,3.6396,,space,1.9671,0,0,0,0,1,,,
,,,,,,,,NAN,,NAN,,0,4,4,4,1,5,Riley,Rej,Participant_Images/60ef2700e476748689a999f7/60ef2700e476748689a999f7_Images/60ef2700e476748689a999f7_Image_8.jpeg,did not like,2.455989137,,,,,,,,,,,,,,
,,,,,,space,1.6656,NAN,,NAN,,0,5,5,5,1,6,Riley,Rej,Participant_Images/60ef2700e476748689a999f7/60ef2700e476748689a999f7_Images/60ef2700e476748689a999f7_Image_20.jpeg,did not like,3.79605092,,,,,,,,,,,,,,
,,,,,,space,1.3323,NAN,,NAN,,0,6,6,6,1,7,Riley,Rej,Participant_Images/60ef2700e476748689a999f7/60ef2700e476748689a999f7_Images/60ef2700e476748689a999f7_Image_28.jpeg,did not like,3.562416326,,,,,,,,,,,,,,
,,,,,,space,1.1977,NAN,,NAN,,0,7,7,7,1,8,Riley,Rej,Participant_Images/60ef2700e476748689a999f7/60ef2700e476748689a999f7_Images/60ef2700e476748689a999f7_Image_14.jpeg,did not like,2.843822497,,,,,,,,,,,,,,
,,,,,,space,0.5223,NAN,,NAN,,0,8,8,8,1,9,Riley,Rej,Participant_Images/60ef2700e476748689a999f7/60ef2700e476748689a999f7_Images/60ef2700e476748689a999f7_Image_10.jpeg,liked,3.546495948,,,,,,,,,,,,,,
,,,,,,,,,,,,,,,,,,,,,,,s,1,2.0923,h,space,0.6323,0,0,0,0,1,1.9486,,
,,,,,,,,NAN,,NAN,,0,9,9,9,1,10,Riley,Rej,Participant_Images/60ef2700e476748689a999f7/60ef2700e476748689a999f7_Images/60ef2700e476748689a999f7_Image_21.jpeg,did not like,1.672012706,,,,,,,,,,,,,,
,,,,,,space,0.5723,NAN,,NAN,,0,10,10,10,1,11,Riley,Rej,Participant_Images/60ef2700e476748689a999f7/60ef2700e476748689a999f7_Images/60ef2700e476748689a999f7_Image_2.jpeg,liked,4.942172136,,,,,,,,,,,,,,
,,,,,,space,0.9624,NAN,,NAN,,0,11,11,11,1,12,Riley,Rej,Participant_Images/60ef2700e476748689a999f7/60ef2700e476748689a999f7_Images/60ef2700e476748689a999f7_Image_26.jpeg,did not like,2.50187214,,,,,,,,,,,,,,
,,,,,,space,0.46,NAN,,NAN,,0,12,12,12,1,13,Riley,Rej,Participant_Images/60ef2700e476748689a999f7/60ef2700e476748689a999f7_Images/60ef2700e476748689a999f7_Image_6.jpeg,did not like,2.071164779,,,,,,,,,,,,,,
,,,,,,space,0.8406,NAN,,NAN,,0,13,13,13,1,14,Riley,Rej,Participant_Images/60ef2700e476748689a999f7/60ef2700e476748689a999f7_Images/60ef2700e476748689a999f7_Image_19.jpeg,did not like,5.336503566,,,,,,,,,,,,,,
,,,,,,,,,,,,,,,,,,,,,,,s,1,1.4491,h,space,0.5341,0,0,0,0,1,0.9789,,
,,,,,,,,NAN,,NAN,,0,14,14,14,1,15,Riley,Rej,Participant_Images/60ef2700e476748689a999f7/60ef2700e476748689a999f7_Images/60ef2700e476748689a999f7_Image_24.jpeg,liked,2.642157193,,,,,,,,,,,,,,
,,,,,,space,0.5575,NAN,,NAN,,0,15,15,15,1,16,Riley,Rej,Participant_Images/60ef2700e476748689a999f7/60ef2700e476748689a999f7_Images/60ef2700e476748689a999f7_Image_12.jpeg,did not like,4.456234322,,,,,,,,,,,,,,
,,,,,,space,0.4097,NAN,,NAN,,0,16,16,16,1,17,Riley,Rej,Participant_Images/60ef2700e476748689a999f7/60ef2700e476748689a999f7_Images/60ef2700e476748689a999f7_Image_27.jpeg,liked,4.438512181,,,,,,,,,,,,,,
,,,,,,space,0.9702,NAN,,NAN,,0,17,17,17,1,18,Riley,Rej,Participant_Images/60ef2700e476748689a999f7/60ef2700e476748689a999f7_Images/60ef2700e476748689a999f7_Image_18.jpeg,did not like,2.682944783,,,,,,,,,,,,,,
,,,,,,space,0.4875,NAN,,NAN,,0,18,18,18,1,19,Riley,Rej,Participant_Images/60ef2700e476748689a999f7/60ef2700e476748689a999f7_Images/60ef2700e476748689a999f7_Image_16.jpeg,did not like,4.51984296,,,,,,,,,,,,,,
,,,,,,,,,,,,,,,,,,,,,,,s,1,1.4489,h,space,1.1154,0,0,0,0,1,0.7658,,
,,,,,,,,NAN,,NAN,,0,19,19,19,1,20,Riley,Rej,Participant_Images/60ef2700e476748689a999f7/60ef2700e476748689a999f7_Images/60ef2700e476748689a999f7_Image_7.jpeg,liked,3.195382774,,,,,,,,,,,,,,
,,,,,,space,0.9118,NAN,,NAN,,0,20,20,20,1,21,Riley,Rej,Participant_Images/60ef2700e476748689a999f7/60ef2700e476748689a999f7_Images/60ef2700e476748689a999f7_Image_5.jpeg,liked,1.779333479,,,,,,,,,,,,,,
,,,,,,space,0.5064,NAN,,NAN,,0,21,21,21,1,22,Riley,Rej,Participant_Images/60ef2700e476748689a999f7/60ef2700e476748689a999f7_Images/60ef2700e476748689a999f7_Image_17.jpeg,did not like,4.312468682,,,,,,,,,,,,,,
,,,,,,space,0.4166,NAN,,NAN,,0,22,22,22,1,23,Riley,Rej,Participant_Images/60ef2700e476748689a999f7/60ef2700e476748689a999f7_Images/60ef2700e476748689a999f7_Image_29.jpeg,liked,4.940433059,,,,,,,,,,,,,,
,,,,,,space,0.8127,NAN,,NAN,,0,23,23,23,1,24,Riley,Rej,Participant_Images/60ef2700e476748689a999f7/60ef2700e476748689a999f7_Images/60ef2700e476748689a999f7_Image_13.jpeg,did not like,2.7105123,,,,,,,,,,,,,,
,,,,,,,,,,,,,,,,,,,,,,,s,1,1.2271,h,space,0.9152,0,0,0,0,1,0.5951,,
,,,,,,,,NAN,,NAN,,0,24,24,24,1,25,Riley,Rej,Participant_Images/60ef2700e476748689a999f7/60ef2700e476748689a999f7_Images/60ef2700e476748689a999f7_Image_3.jpeg,did not like,3.602308302,,,,,,,,,,,,,,
,,,,,,space,0.6165,NAN,,NAN,,0,25,25,25,1,26,Riley,Rej,Participant_Images/60ef2700e476748689a999f7/60ef2700e476748689a999f7_Images/60ef2700e476748689a999f7_Image_22.jpeg,liked,4.106391878,,,,,,,,,,,,,,
,,,,,,space,0.8115,NAN,,NAN,,0,26,26,26,1,27,Riley,Rej,Participant_Images/60ef2700e476748689a999f7/60ef2700e476748689a999f7_Images/60ef2700e476748689a999f7_Image_4.jpeg,did not like,3.799433026,,,,,,,,,,,,,,
,,,,,,space,1.1263,NAN,,NAN,,0,27,27,27,1,28,Riley,Rej,Participant_Images/60ef2700e476748689a999f7/60ef2700e476748689a999f7_Images/60ef2700e476748689a999f7_Image_1.jpeg,did not like,5.246980764,,,,,,,,,,,,,,
,,,,,,space,1.9073,NAN,,NAN,,0,28,28,28,1,29,Riley,Rej,Participant_Images/60ef2700e476748689a999f7/60ef2700e476748689a999f7_Images/60ef2700e476748689a999f7_Image_9.jpeg,did not like,3.30081769,,,,,,,,,,,,,,
,,,,,,,,,,,,,,,,,,,,,,,s,1,1.4153,h,space,1.037,0,0,0,0,1,0.3872,,
,,,,,,,,1,,1,,0,29,29,29,1,30,Riley,Rej,Participant_Images/60ef2700e476748689a999f7/60ef2700e476748689a999f7_Images/60ef2700e476748689a999f7_Image_23.jpeg,did not like,1.661473164,,,,,,,,,,,,,,
,,,,space,1.5233,space,1.1529,NAN,,NAN,,0,30,30,30,1,31,Taylor,Neutral,Participant_Images/60ef2700e476748689a999f7/60ef2700e476748689a999f7_Images/60ef2700e476748689a999f7_Image_7.jpeg,did not like,3.613205605,,,,,,,,,,,,,,
,,,,,,space,1.0704,NAN,,NAN,,0,31,31,31,1,32,Taylor,Neutral,Participant_Images/60ef2700e476748689a999f7/60ef2700e476748689a999f7_Images/60ef2700e476748689a999f7_Image_27.jpeg,did not like,4.988446431,,,,,,,,,,,,,,
,,,,,,space,1.2993,NAN,,NAN,,0,32,32,32,1,33,Taylor,Neutral,Participant_Images/60ef2700e476748689a999f7/60ef2700e476748689a999f7_Images/60ef2700e476748689a999f7_Image_19.jpeg,liked,3.470791822,,,,,,,,,,,,,,
,,,,,,space,1.4832,NAN,,NAN,,0,33,33,33,1,34,Taylor,Neutral,Participant_Images/60ef2700e476748689a999f7/60ef2700e476748689a999f7_Images/60ef2700e476748689a999f7_Image_24.jpeg,liked,3.820572462,,,,,,,,,,,,,,
,,,,,,,,,,,,,,,,,,,,,,,s,1,1.6014,h,space,0.6471,0,0,0,0,1,0.3303,,
,,,,,,,,NAN,,NAN,,0,34,34,34,1,35,Taylor,Neutral,Participant_Images/60ef2700e476748689a999f7/60ef2700e476748689a999f7_Images/60ef2700e476748689a999f7_Image_5.jpeg,did not like,2.455989137,,,,,,,,,,,,,,
,,,,,,space,1.0492,NAN,,NAN,,0,35,35,35,1,36,Taylor,Neutral,Participant_Images/60ef2700e476748689a999f7/60ef2700e476748689a999f7_Images/60ef2700e476748689a999f7_Image_6.jpeg,liked,3.79605092,,,,,,,,,,,,,,
,,,,,,space,2.4949,NAN,,NAN,,0,36,36,36,1,37,Taylor,Neutral,Participant_Images/60ef2700e476748689a999f7/60ef2700e476748689a999f7_Images/60ef2700e476748689a999f7_Image_28.jpeg,liked,3.562416326,,,,,,,,,,,,,,
,,,,,,space,2.8306,NAN,,NAN,,0,37,37,37,1,38,Taylor,Neutral,Participant_Images/60ef2700e476748689a999f7/60ef2700e476748689a999f7_Images/60ef2700e476748689a999f7_Image_29.jpeg,liked,2.843822497,,,,,,,,,,,,,,
,,,,,,space,0.4421,NAN,,NAN,,0,38,38,38,1,39,Taylor,Neutral,Participant_Images/60ef2700e476748689a999f7/60ef2700e476748689a999f7_Images/60ef2700e476748689a999f7_Image_13.jpeg,liked,3.546495948,,,,,,,,,,,,,,
,,,,,,,,,,,,,,,,,,,,,,,s,1,1.6496,h,space,0.4778,0,0,0,0,1,0.4664,,
,,,,,,,,NAN,,NAN,,0,39,39,39,1,40,Taylor,Neutral,Participant_Images/60ef2700e476748689a999f7/60ef2700e476748689a999f7_Images/60ef2700e476748689a999f7_Image_23.jpeg,did not like,1.672012706,,,,,,,,,,,,,,
,,,,,,space,2.3274,NAN,,NAN,,0,40,40,40,1,41,Taylor,Neutral,Participant_Images/60ef2700e476748689a999f7/60ef2700e476748689a999f7_Images/60ef2700e476748689a999f7_Image_30.jpeg,did not like,4.942172136,,,,,,,,,,,,,,
,,,,,,space,2.5346,NAN,,NAN,,0,41,41,41,1,42,Taylor,Neutral,Participant_Images/60ef2700e476748689a999f7/60ef2700e476748689a999f7_Images/60ef2700e476748689a999f7_Image_20.jpeg,did not like,2.50187214,,,,,,,,,,,,,,
,,,,,,space,1.2859,NAN,,NAN,,0,42,42,42,1,43,Taylor,Neutral,Participant_Images/60ef2700e476748689a999f7/60ef2700e476748689a999f7_Images/60ef2700e476748689a999f7_Image_9.jpeg,liked,2.071164779,,,,,,,,,,,,,,
,,,,,,space,1.0724,NAN,,NAN,,0,43,43,43,1,44,Taylor,Neutral,Participant_Images/60ef2700e476748689a999f7/60ef2700e476748689a999f7_Images/60ef2700e476748689a999f7_Image_8.jpeg,liked,5.336503566,,,,,,,,,,,,,,
,,,,,,,,,,,,,,,,,,,,,,,s,1,1.2823,h,space,3.6802,0,0,0,0,1,0.3163,,
,,,,,,,,NAN,,NAN,,0,44,44,44,1,45,Taylor,Neutral,Participant_Images/60ef2700e476748689a999f7/60ef2700e476748689a999f7_Images/60ef2700e476748689a999f7_Image_4.jpeg,did not like,2.642157193,,,,,,,,,,,,,,
,,,,,,space,1.5857,NAN,,NAN,,0,45,45,45,1,46,Taylor,Neutral,Participant_Images/60ef2700e476748689a999f7/60ef2700e476748689a999f7_Images/60ef2700e476748689a999f7_Image_26.jpeg,did not like,4.456234322,,,,,,,,,,,,,,
,,,,,,space,2.9181,NAN,,NAN,,0,46,46,46,1,47,Taylor,Neutral,Participant_Images/60ef2700e476748689a999f7/60ef2700e476748689a999f7_Images/60ef2700e476748689a999f7_Image_21.jpeg,did not like,4.438512181,,,,,,,,,,,,,,
,,,,,,space,1.5786,NAN,,NAN,,0,47,47,47,1,48,Taylor,Neutral,Participant_Images/60ef2700e476748689a999f7/60ef2700e476748689a999f7_Images/60ef2700e476748689a999f7_Image_15.jpeg,liked,2.682944783,,,,,,,,,,,,,,
,,,,,,space,2.4776,NAN,,NAN,,0,48,48,48,1,49,Taylor,Neutral,Participant_Images/60ef2700e476748689a999f7/60ef2700e476748689a999f7_Images/60ef2700e476748689a999f7_Image_14.jpeg,liked,4.51984296,,,,,,,,,,,,,,
,,,,,,,,,,,,,,,,,,,,,,,s,1,2.0149,h,space,4.0633,0,0,0,0,1,0.3489,,
,,,,,,,,NAN,,NAN,,0,49,49,49,1,50,Taylor,Neutral,Participant_Images/60ef2700e476748689a999f7/60ef2700e476748689a999f7_Images/60ef2700e476748689a999f7_Image_3.jpeg,liked,3.195382774,,,,,,,,,,,,,,
,,,,,,space,1.7041,NAN,,NAN,,0,50,50,50,1,51,Taylor,Neutral,Participant_Images/60ef2700e476748689a999f7/60ef2700e476748689a999f7_Images/60ef2700e476748689a999f7_Image_10.jpeg,liked,1.779333479,,,,,,,,,,,,,,
,,,,,,space,3.1096,NAN,,NAN,,0,51,51,51,1,52,Taylor,Neutral,Participant_Images/60ef2700e476748689a999f7/60ef2700e476748689a999f7_Images/60ef2700e476748689a999f7_Image_18.jpeg,did not like,4.312468682,,,,,,,,,,,,,,
,,,,,,space,1.6646,NAN,,NAN,,0,52,52,52,1,53,Taylor,Neutral,Participant_Images/60ef2700e476748689a999f7/60ef2700e476748689a999f7_Images/60ef2700e476748689a999f7_Image_17.jpeg,did not like,4.940433059,,,,,,,,,,,,,,
,,,,,,space,1.0326,NAN,,NAN,,0,53,53,53,1,54,Taylor,Neutral,Participant_Images/60ef2700e476748689a999f7/60ef2700e476748689a999f7_Images/60ef2700e476748689a999f7_Image_11.jpeg,liked,2.7105123,,,,,,,,,,,,,,
,,,,,,,,,,,,,,,,,,,,,,,s,1,2.1951,,space,2.2413,0,0,0,0,1,,,
,,,,,,,,NAN,,NAN,,0,54,54,54,1,55,Taylor,Neutral,Participant_Images/60ef2700e476748689a999f7/60ef2700e476748689a999f7_Images/60ef2700e476748689a999f7_Image_16.jpeg,did not like,3.602308302,,,,,,,,,,,,,,
,,,,,,space,7.8226,NAN,,NAN,,0,55,55,55,1,56,Taylor,Neutral,Participant_Images/60ef2700e476748689a999f7/60ef2700e476748689a999f7_Images/60ef2700e476748689a999f7_Image_2.jpeg,liked,4.106391878,,,,,,,,,,,,,,
,,,,,,space,2.0282,NAN,,NAN,,0,56,56,56,1,57,Taylor,Neutral,Participant_Images/60ef2700e476748689a999f7/60ef2700e476748689a999f7_Images/60ef2700e476748689a999f7_Image_22.jpeg,did not like,3.799433026,,,,,,,,,,,,,,
,,,,,,space,4.7595,NAN,,NAN,,0,57,57,57,1,58,Taylor,Neutral,Participant_Images/60ef2700e476748689a999f7/60ef2700e476748689a999f7_Images/60ef2700e476748689a999f7_Image_1.jpeg,liked,5.246980764,,,,,,,,,,,,,,
,,,,,,space,1.7412,NAN,,NAN,,0,58,58,58,1,59,Taylor,Neutral,Participant_Images/60ef2700e476748689a999f7/60ef2700e476748689a999f7_Images/60ef2700e476748689a999f7_Image_25.jpeg,did not like,3.30081769,,,,,,,,,,,,,,
,,,,,,,,,,,,,,,,,,,,,,,s,1,1.9126,h,space,1.153,0,0,0,0,1,0.2831,,
,,,,,,,,2,,1,,0,59,59,59,1,60,Taylor,Neutral,Participant_Images/60ef2700e476748689a999f7/60ef2700e476748689a999f7_Images/60ef2700e476748689a999f7_Image_12.jpeg,did not like,1.661473164,,,,,,,,,,,,,,
,,,,space,1.7443,space,2.8517,NAN,,NAN,,0,60,60,60,1,61,Alex,Acc,Participant_Images/60ef2700e476748689a999f7/60ef2700e476748689a999f7_Images/60ef2700e476748689a999f7_Image_5.jpeg,liked,3.613205605,,,,,,,,,,,,,,
,,,,,,space,0.7761,NAN,,NAN,,0,61,61,61,1,62,Alex,Acc,Participant_Images/60ef2700e476748689a999f7/60ef2700e476748689a999f7_Images/60ef2700e476748689a999f7_Image_27.jpeg,did not like,4.988446431,,,,,,,,,,,,,,
,,,,,,space,1.2316,NAN,,NAN,,0,62,62,62,1,63,Alex,Acc,Participant_Images/60ef2700e476748689a999f7/60ef2700e476748689a999f7_Images/60ef2700e476748689a999f7_Image_28.jpeg,liked,3.470791822,,,,,,,,,,,,,,
,,,,,,space,2.0386,NAN,,NAN,,0,63,63,63,1,64,Alex,Acc,Participant_Images/60ef2700e476748689a999f7/60ef2700e476748689a999f7_Images/60ef2700e476748689a999f7_Image_4.jpeg,liked,3.820572462,,,,,,,,,,,,,,
,,,,,,,,,,,,,,,,,,,,,,,s,1,1.7515,h,space,2.3155,0,0,0,0,1,0.4126,,
,,,,,,,,NAN,,NAN,,0,64,64,64,1,65,Alex,Acc,Participant_Images/60ef2700e476748689a999f7/60ef2700e476748689a999f7_Images/60ef2700e476748689a999f7_Image_20.jpeg,did not like,2.455989137,,,,,,,,,,,,,,
,,,,,,space,7.0736,NAN,,NAN,,0,65,65,65,1,66,Alex,Acc,Participant_Images/60ef2700e476748689a999f7/60ef2700e476748689a999f7_Images/60ef2700e476748689a999f7_Image_30.jpeg,liked,3.79605092,,,,,,,,,,,,,,
,,,,,,space,1.2816,NAN,,NAN,,0,66,66,66,1,67,Alex,Acc,Participant_Images/60ef2700e476748689a999f7/60ef2700e476748689a999f7_Images/60ef2700e476748689a999f7_Image_2.jpeg,liked,3.562416326,,,,,,,,,,,,,,
,,,,,,space,0.407,NAN,,NAN,,0,67,67,67,1,68,Alex,Acc,Participant_Images/60ef2700e476748689a999f7/60ef2700e476748689a999f7_Images/60ef2700e476748689a999f7_Image_29.jpeg,liked,2.843822497,,,,,,,,,,,,,,
,,,,,,space,0.7963,NAN,,NAN,,0,68,68,68,1,69,Alex,Acc,Participant_Images/60ef2700e476748689a999f7/60ef2700e476748689a999f7_Images/60ef2700e476748689a999f7_Image_16.jpeg,liked,3.546495948,,,,,,,,,,,,,,
,,,,,,,,,,,,,,,,,,,,,,,s,1,3.1654,h,space,1.5661,0,0,0,0,1,1.1113,,
,,,,,,,,NAN,,NAN,,0,69,69,69,1,70,Alex,Acc,Participant_Images/60ef2700e476748689a999f7/60ef2700e476748689a999f7_Images/60ef2700e476748689a999f7_Image_10.jpeg,did not like,1.672012706,,,,,,,,,,,,,,
,,,,,,space,1.2226,NAN,,NAN,,0,70,70,70,1,71,Alex,Acc,Participant_Images/60ef2700e476748689a999f7/60ef2700e476748689a999f7_Images/60ef2700e476748689a999f7_Image_11.jpeg,liked,4.942172136,,,,,,,,,,,,,,
,,,,,,space,1.8553,NAN,,NAN,,0,71,71,71,1,72,Alex,Acc,Participant_Images/60ef2700e476748689a999f7/60ef2700e476748689a999f7_Images/60ef2700e476748689a999f7_Image_13.jpeg,did not like,2.50187214,,,,,,,,,,,,,,
,,,,,,space,1.1528,NAN,,NAN,,0,72,72,72,1,73,Alex,Acc,Participant_Images/60ef2700e476748689a999f7/60ef2700e476748689a999f7_Images/60ef2700e476748689a999f7_Image_17.jpeg,did not like,2.071164779,,,,,,,,,,,,,,
,,,,,,space,1.4858,NAN,,NAN,,0,73,73,73,1,74,Alex,Acc,Participant_Images/60ef2700e476748689a999f7/60ef2700e476748689a999f7_Images/60ef2700e476748689a999f7_Image_9.jpeg,did not like,5.336503566,,,,,,,,,,,,,,
,,,,,,,,,,,,,,,,,,,,,,,s,1,2.1345,h,space,0.9824,0,0,0,0,1,0.3834,,
,,,,,,,,NAN,,NAN,,0,74,74,74,1,75,Alex,Acc,Participant_Images/60ef2700e476748689a999f7/60ef2700e476748689a999f7_Images/60ef2700e476748689a999f7_Image_8.jpeg,liked,2.642157193,,,,,,,,,,,,,,
,,,,,,space,1.0284,NAN,,NAN,,0,75,75,75,1,76,Alex,Acc,Participant_Images/60ef2700e476748689a999f7/60ef2700e476748689a999f7_Images/60ef2700e476748689a999f7_Image_24.jpeg,liked,4.456234322,,,,,,,,,,,,,,
,,,,,,space,3.746,NAN,,NAN,,0,76,76,76,1,77,Alex,Acc,Participant_Images/60ef2700e476748689a999f7/60ef2700e476748689a999f7_Images/60ef2700e476748689a999f7_Image_18.jpeg,liked,4.438512181,,,,,,,,,,,,,,
,,,,,,space,0.9862,NAN,,NAN,,0,77,77,77,1,78,Alex,Acc,Participant_Images/60ef2700e476748689a999f7/60ef2700e476748689a999f7_Images/60ef2700e476748689a999f7_Image_15.jpeg,liked,2.682944783,,,,,,,,,,,,,,
,,,,,,space,5.329,NAN,,NAN,,0,78,78,78,1,79,Alex,Acc,Participant_Images/60ef2700e476748689a999f7/60ef2700e476748689a999f7_Images/60ef2700e476748689a999f7_Image_3.jpeg,liked,4.51984296,,,,,,,,,,,,,,
,,,,,,,,,,,,,,,,,,,,,,,s,1,1.2124,h,space,1.5851,0,0,0,0,1,0.2463,,
,,,,,,,,NAN,,NAN,,0,79,79,79,1,80,Alex,Acc,Participant_Images/60ef2700e476748689a999f7/60ef2700e476748689a999f7_Images/60ef2700e476748689a999f7_Image_22.jpeg,liked,3.195382774,,,,,,,,,,,,,,
,,,,,,space,3.8216,NAN,,NAN,,0,80,80,80,1,81,Alex,Acc,Participant_Images/60ef2700e476748689a999f7/60ef2700e476748689a999f7_Images/60ef2700e476748689a999f7_Image_26.jpeg,did not like,1.779333479,,,,,,,,,,,,,,
,,,,,,space,1.7056,NAN,,NAN,,0,81,81,81,1,82,Alex,Acc,Participant_Images/60ef2700e476748689a999f7/60ef2700e476748689a999f7_Images/60ef2700e476748689a999f7_Image_14.jpeg,liked,4.312468682,,,,,,,,,,,,,,
,,,,,,space,1.0704,NAN,,NAN,,0,82,82,82,1,83,Alex,Acc,Participant_Images/60ef2700e476748689a999f7/60ef2700e476748689a999f7_Images/60ef2700e476748689a999f7_Image_23.jpeg,did not like,4.940433059,,,,,,,,,,,,,,
,,,,,,space,1.229,NAN,,NAN,,0,83,83,83,1,84,Alex,Acc,Participant_Images/60ef2700e476748689a999f7/60ef2700e476748689a999f7_Images/60ef2700e476748689a999f7_Image_7.jpeg,liked,2.7105123,,,,,,,,,,,,,,
,,,,,,,,,,,,,,,,,,,,,,,s,1,1.7859,h,space,0.9721,0,0,0,0,1,0.6962,,
,,,,,,,,NAN,,NAN,,0,84,84,84,1,85,Alex,Acc,Participant_Images/60ef2700e476748689a999f7/60ef2700e476748689a999f7_Images/60ef2700e476748689a999f7_Image_1.jpeg,liked,3.602308302,,,,,,,,,,,,,,
,,,,,,space,2.2586,NAN,,NAN,,0,85,85,85,1,86,Alex,Acc,Participant_Images/60ef2700e476748689a999f7/60ef2700e476748689a999f7_Images/60ef2700e476748689a999f7_Image_21.jpeg,liked,4.106391878,,,,,,,,,,,,,,
,,,,,,space,7.4553,NAN,,NAN,,0,86,86,86,1,87,Alex,Acc,Participant_Images/60ef2700e476748689a999f7/60ef2700e476748689a999f7_Images/60ef2700e476748689a999f7_Image_12.jpeg,liked,3.799433026,,,,,,,,,,,,,,
,,,,,,space,3.9195,NAN,,NAN,,0,87,87,87,1,88,Alex,Acc,Participant_Images/60ef2700e476748689a999f7/60ef2700e476748689a999f7_Images/60ef2700e476748689a999f7_Image_19.jpeg,liked,5.246980764,,,,,,,,,,,,,,
,,,,,,space,1.6883,NAN,,NAN,,0,88,88,88,1,89,Alex,Acc,Participant_Images/60ef2700e476748689a999f7/60ef2700e476748689a999f7_Images/60ef2700e476748689a999f7_Image_25.jpeg,liked,3.30081769,,,,,,,,,,,,,,
,,,,,,,,,,,,,,,,,,,,,,,s,1,1.4317,h,space,4.0124,0,0,0,0,1,0.5992,,
,,,,,,,,3,,1,,0,89,89,89,1,90,Alex,Acc,Participant_Images/60ef2700e476748689a999f7/60ef2700e476748689a999f7_Images/60ef2700e476748689a999f7_Image_6.jpeg,did not like,1.661473164,,,,,,,,,,,,,,
,,,,space,1.6568,space,2.1683,NAN,,NAN,,0,90,90,90,1,91,Charlie,Acc,Participant_Images/60ef2700e476748689a999f7/60ef2700e476748689a999f7_Images/60ef2700e476748689a999f7_Image_2.jpeg,liked,3.613205605,,,,,,,,,,,,,,
,,,,,,space,2.6146,NAN,,NAN,,0,91,91,91,1,92,Charlie,Acc,Participant_Images/60ef2700e476748689a999f7/60ef2700e476748689a999f7_Images/60ef2700e476748689a999f7_Image_13.jpeg,liked,4.988446431,,,,,,,,,,,,,,
,,,,,,space,0.6384,NAN,,NAN,,0,92,92,92,1,93,Charlie,Acc,Participant_Images/60ef2700e476748689a999f7/60ef2700e476748689a999f7_Images/60ef2700e476748689a999f7_Image_9.jpeg,liked,3.470791822,,,,,,,,,,,,,,
,,,,,,space,1.7114,NAN,,NAN,,0,93,93,93,1,94,Charlie,Acc,Participant_Images/60ef2700e476748689a999f7/60ef2700e476748689a999f7_Images/60ef2700e476748689a999f7_Image_14.jpeg,liked,3.820572462,,,,,,,,,,,,,,
,,,,,,,,,,,,,,,,,,,,,,,s,1,1.9013,h,space,2.9512,0,0,0,0,1,0.4299,,
,,,,,,,,NAN,,NAN,,0,94,94,94,1,95,Charlie,Acc,Participant_Images/60ef2700e476748689a999f7/60ef2700e476748689a999f7_Images/60ef2700e476748689a999f7_Image_3.jpeg,liked,2.455989137,,,,,,,,,,,,,,
,,,,,,space,0.8964,NAN,,NAN,,0,95,95,95,1,96,Charlie,Acc,Participant_Images/60ef2700e476748689a999f7/60ef2700e476748689a999f7_Images/60ef2700e476748689a999f7_Image_6.jpeg,liked,3.79605092,,,,,,,,,,,,,,
,,,,,,space,3.92,NAN,,NAN,,0,96,96,96,1,97,Charlie,Acc,Participant_Images/60ef2700e476748689a999f7/60ef2700e476748689a999f7_Images/60ef2700e476748689a999f7_Image_18.jpeg,liked,3.562416326,,,,,,,,,,,,,,
,,,,,,space,1.3726,NAN,,NAN,,0,97,97,97,1,98,Charlie,Acc,Participant_Images/60ef2700e476748689a999f7/60ef2700e476748689a999f7_Images/60ef2700e476748689a999f7_Image_30.jpeg,liked,2.843822497,,,,,,,,,,,,,,
,,,,,,space,1.1947,NAN,,NAN,,0,98,98,98,1,99,Charlie,Acc,Participant_Images/60ef2700e476748689a999f7/60ef2700e476748689a999f7_Images/60ef2700e476748689a999f7_Image_5.jpeg,liked,3.546495948,,,,,,,,,,,,,,
,,,,,,,,,,,,,,,,,,,,,,,s,1,1.432,h,space,2.6152,0,0,0,0,1,0.4116,,
,,,,,,,,NAN,,NAN,,0,99,99,99,1,100,Charlie,Acc,Participant_Images/60ef2700e476748689a999f7/60ef2700e476748689a999f7_Images/60ef2700e476748689a999f7_Image_27.jpeg,liked,1.672012706,,,,,,,,,,,,,,
,,,,,,space,1.4649,NAN,,NAN,,0,100,100,100,1,101,Charlie,Acc,Participant_Images/60ef2700e476748689a999f7/60ef2700e476748689a999f7_Images/60ef2700e476748689a999f7_Image_22.jpeg,did not like,4.942172136,,,,,,,,,,,,,,
,,,,,,space,5.0926,NAN,,NAN,,0,101,101,101,1,102,Charlie,Acc,Participant_Images/60ef2700e476748689a999f7/60ef2700e476748689a999f7_Images/60ef2700e476748689a999f7_Image_24.jpeg,liked,2.50187214,,,,,,,,,,,,,,
,,,,,,space,2.7979,NAN,,NAN,,0,102,102,102,1,103,Charlie,Acc,Participant_Images/60ef2700e476748689a999f7/60ef2700e476748689a999f7_Images/60ef2700e476748689a999f7_Image_28.jpeg,liked,2.071164779,,,,,,,,,,,,,,
,,,,,,space,2.9602,NAN,,NAN,,0,103,103,103,1,104,Charlie,Acc,Participant_Images/60ef2700e476748689a999f7/60ef2700e476748689a999f7_Images/60ef2700e476748689a999f7_Image_11.jpeg,liked,5.336503566,,,,,,,,,,,,,,
,,,,,,,,,,,,,,,,,,,,,,,s,1,1.7283,h,space,1.6491,0,0,0,0,1,0.4657,,
,,,,,,,,NAN,,NAN,,0,104,104,104,1,105,Charlie,Acc,Participant_Images/60ef2700e476748689a999f7/60ef2700e476748689a999f7_Images/60ef2700e476748689a999f7_Image_7.jpeg,liked,2.642157193,,,,,,,,,,,,,,
,,,,,,space,1.1283,NAN,,NAN,,0,105,105,105,1,106,Charlie,Acc,Participant_Images/60ef2700e476748689a999f7/60ef2700e476748689a999f7_Images/60ef2700e476748689a999f7_Image_23.jpeg,liked,4.456234322,,,,,,,,,,,,,,
,,,,,,space,1.224,NAN,,NAN,,0,106,106,106,1,107,Charlie,Acc,Participant_Images/60ef2700e476748689a999f7/60ef2700e476748689a999f7_Images/60ef2700e476748689a999f7_Image_8.jpeg,liked,4.438512181,,,,,,,,,,,,,,
,,,,,,space,1.6063,NAN,,NAN,,0,107,107,107,1,108,Charlie,Acc,Participant_Images/60ef2700e476748689a999f7/60ef2700e476748689a999f7_Images/60ef2700e476748689a999f7_Image_26.jpeg,did not like,2.682944783,,,,,,,,,,,,,,
,,,,,,space,3.3192,NAN,,NAN,,0,108,108,108,1,109,Charlie,Acc,Participant_Images/60ef2700e476748689a999f7/60ef2700e476748689a999f7_Images/60ef2700e476748689a999f7_Image_15.jpeg,liked,4.51984296,,,,,,,,,,,,,,
,,,,,,,,,,,,,,,,,,,,,,,,999,,,space,2.562,0,0,0,0,1,,,
,,,,,,,,NAN,,NAN,,0,109,109,109,1,110,Charlie,Acc,Participant_Images/60ef2700e476748689a999f7/60ef2700e476748689a999f7_Images/60ef2700e476748689a999f7_Image_19.jpeg,liked,3.195382774,,,,,,,,,,,,,,
,,,,,,space,0.5496,NAN,,NAN,,0,110,110,110,1,111,Charlie,Acc,Participant_Images/60ef2700e476748689a999f7/60ef2700e476748689a999f7_Images/60ef2700e476748689a999f7_Image_20.jpeg,liked,1.779333479,,,,,,,,,,,,,,
,,,,,,space,1.5544,NAN,,NAN,,0,111,111,111,1,112,Charlie,Acc,Participant_Images/60ef2700e476748689a999f7/60ef2700e476748689a999f7_Images/60ef2700e476748689a999f7_Image_25.jpeg,liked,4.312468682,,,,,,,,,,,,,,
,,,,,,space,1.0406,NAN,,NAN,,0,112,112,112,1,113,Charlie,Acc,Participant_Images/60ef2700e476748689a999f7/60ef2700e476748689a999f7_Images/60ef2700e476748689a999f7_Image_10.jpeg,did not like,4.940433059,,,,,,,,,,,,,,
,,,,,,space,1.1599,NAN,,NAN,,0,113,113,113,1,114,Charlie,Acc,Participant_Images/60ef2700e476748689a999f7/60ef2700e476748689a999f7_Images/60ef2700e476748689a999f7_Image_16.jpeg,did not like,2.7105123,,,,,,,,,,,,,,
,,,,,,,,,,,,,,,,,,,,,,,,999,,,space,1.0957,0,0,0,0,1,,,
,,,,,,,,NAN,,NAN,,0,114,114,114,1,115,Charlie,Acc,Participant_Images/60ef2700e476748689a999f7/60ef2700e476748689a999f7_Images/60ef2700e476748689a999f7_Image_1.jpeg,did not like,3.602308302,,,,,,,,,,,,,,
,,,,,,space,1.7753,NAN,,NAN,,0,115,115,115,1,116,Charlie,Acc,Participant_Images/60ef2700e476748689a999f7/60ef2700e476748689a999f7_Images/60ef2700e476748689a999f7_Image_17.jpeg,did not like,4.106391878,,,,,,,,,,,,,,
,,,,,,space,0.5083,NAN,,NAN,,0,116,116,116,1,117,Charlie,Acc,Participant_Images/60ef2700e476748689a999f7/60ef2700e476748689a999f7_Images/60ef2700e476748689a999f7_Image_12.jpeg,did not like,3.799433026,,,,,,,,,,,,,,
,,,,,,space,1.6104,NAN,,NAN,,0,117,117,117,1,118,Charlie,Acc,Participant_Images/60ef2700e476748689a999f7/60ef2700e476748689a999f7_Images/60ef2700e476748689a999f7_Image_29.jpeg,liked,5.246980764,,,,,,,,,,,,,,
,,,,,,space,0.9764,NAN,,NAN,,0,118,118,118,1,119,Charlie,Acc,Participant_Images/60ef2700e476748689a999f7/60ef2700e476748689a999f7_Images/60ef2700e476748689a999f7_Image_21.jpeg,did not like,3.30081769,,,,,,,,,,,,,,
,,,,,,,,,,,,,,,,,,,,,,,c,0,1.618,,space,1.1944,0,0,0,0,1,,,
,,,,,,,,4,,1,,0,119,119,119,1,120,Charlie,Acc,Participant_Images/60ef2700e476748689a999f7/60ef2700e476748689a999f7_Images/60ef2700e476748689a999f7_Image_4.jpeg,did not like,1.661473164,,,,,,,,,,,,,,
,,,,space,7.2787,space,1.2992,NAN,,NAN,,0,120,120,120,1,121,Sam,Rej,Participant_Images/60ef2700e476748689a999f7/60ef2700e476748689a999f7_Images/60ef2700e476748689a999f7_Image_25.jpeg,did not like,3.613205605,,,,,,,,,,,,,,
,,,,,,space,1.2382,NAN,,NAN,,0,121,121,121,1,122,Sam,Rej,Participant_Images/60ef2700e476748689a999f7/60ef2700e476748689a999f7_Images/60ef2700e476748689a999f7_Image_11.jpeg,liked,4.988446431,,,,,,,,,,,,,,
,,,,,,space,2.1883,NAN,,NAN,,0,122,122,122,1,123,Sam,Rej,Participant_Images/60ef2700e476748689a999f7/60ef2700e476748689a999f7_Images/60ef2700e476748689a999f7_Image_12.jpeg,did not like,3.470791822,,,,,,,,,,,,,,
,,,,,,space,2.3489,NAN,,NAN,,0,123,123,123,1,124,Sam,Rej,Participant_Images/60ef2700e476748689a999f7/60ef2700e476748689a999f7_Images/60ef2700e476748689a999f7_Image_5.jpeg,did not like,3.820572462,,,,,,,,,,,,,,
,,,,,,,,,,,,,,,,,,,,,,,s,1,2.1489,h,space,0.9321,0,0,0,0,1,0.7833,,
,,,,,,,,NAN,,NAN,,0,124,124,124,1,125,Sam,Rej,Participant_Images/60ef2700e476748689a999f7/60ef2700e476748689a999f7_Images/60ef2700e476748689a999f7_Image_2.jpeg,did not like,2.455989137,,,,,,,,,,,,,,
,,,,,,space,1.2055,NAN,,NAN,,0,125,125,125,1,126,Sam,Rej,Participant_Images/60ef2700e476748689a999f7/60ef2700e476748689a999f7_Images/60ef2700e476748689a999f7_Image_6.jpeg,did not like,3.79605092,,,,,,,,,,,,,,
,,,,,,space,2.0052,NAN,,NAN,,0,126,126,126,1,127,Sam,Rej,Participant_Images/60ef2700e476748689a999f7/60ef2700e476748689a999f7_Images/60ef2700e476748689a999f7_Image_1.jpeg,did not like,3.562416326,,,,,,,,,,,,,,
,,,,,,space,0.678,NAN,,NAN,,0,127,127,127,1,128,Sam,Rej,Participant_Images/60ef2700e476748689a999f7/60ef2700e476748689a999f7_Images/60ef2700e476748689a999f7_Image_17.jpeg,liked,2.843822497,,,,,,,,,,,,,,
,,,,,,space,5.1801,NAN,,NAN,,0,128,128,128,1,129,Sam,Rej,Participant_Images/60ef2700e476748689a999f7/60ef2700e476748689a999f7_Images/60ef2700e476748689a999f7_Image_29.jpeg,did not like,3.546495948,,,,,,,,,,,,,,
,,,,,,,,,,,,,,,,,,,,,,,,999,,,space,1.1967,0,0,0,0,1,,,
,,,,,,,,NAN,,NAN,,0,129,129,129,1,130,Sam,Rej,Participant_Images/60ef2700e476748689a999f7/60ef2700e476748689a999f7_Images/60ef2700e476748689a999f7_Image_21.jpeg,did not like,1.672012706,,,,,,,,,,,,,,
,,,,,,space,1.9938,NAN,,NAN,,0,130,130,130,1,131,Sam,Rej,Participant_Images/60ef2700e476748689a999f7/60ef2700e476748689a999f7_Images/60ef2700e476748689a999f7_Image_18.jpeg,liked,4.942172136,,,,,,,,,,,,,,
,,,,,,space,1.0744,NAN,,NAN,,0,131,131,131,1,132,Sam,Rej,Participant_Images/60ef2700e476748689a999f7/60ef2700e476748689a999f7_Images/60ef2700e476748689a999f7_Image_19.jpeg,liked,2.50187214,,,,,,,,,,,,,,
,,,,,,space,0.7777,NAN,,NAN,,0,132,132,132,1,133,Sam,Rej,Participant_Images/60ef2700e476748689a999f7/60ef2700e476748689a999f7_Images/60ef2700e476748689a999f7_Image_3.jpeg,liked,2.071164779,,,,,,,,,,,,,,
,,,,,,space,2.8197,NAN,,NAN,,0,133,133,133,1,134,Sam,Rej,Participant_Images/60ef2700e476748689a999f7/60ef2700e476748689a999f7_Images/60ef2700e476748689a999f7_Image_20.jpeg,liked,5.336503566,,,,,,,,,,,,,,
,,,,,,,,,,,,,,,,,,,,,,,s,1,2.7653,h,space,0.4173,0,0,0,0,1,0.3006,,
,,,,,,,,NAN,,NAN,,0,134,134,134,1,135,Sam,Rej,Participant_Images/60ef2700e476748689a999f7/60ef2700e476748689a999f7_Images/60ef2700e476748689a999f7_Image_27.jpeg,did not like,2.642157193,,,,,,,,,,,,,,
,,,,,,space,6.5433,NAN,,NAN,,0,135,135,135,1,136,Sam,Rej,Participant_Images/60ef2700e476748689a999f7/60ef2700e476748689a999f7_Images/60ef2700e476748689a999f7_Image_26.jpeg,did not like,4.456234322,,,,,,,,,,,,,,
,,,,,,space,2.8257,NAN,,NAN,,0,136,136,136,1,137,Sam,Rej,Participant_Images/60ef2700e476748689a999f7/60ef2700e476748689a999f7_Images/60ef2700e476748689a999f7_Image_7.jpeg,did not like,4.438512181,,,,,,,,,,,,,,
,,,,,,space,1.1103,NAN,,NAN,,0,137,137,137,1,138,Sam,Rej,Participant_Images/60ef2700e476748689a999f7/60ef2700e476748689a999f7_Images/60ef2700e476748689a999f7_Image_8.jpeg,did not like,2.682944783,,,,,,,,,,,,,,
,,,,,,space,25.4013,NAN,,NAN,,0,138,138,138,1,139,Sam,Rej,Participant_Images/60ef2700e476748689a999f7/60ef2700e476748689a999f7_Images/60ef2700e476748689a999f7_Image_16.jpeg,did not like,4.51984296,,,,,,,,,,,,,,
,,,,,,,,,,,,,,,,,,,,,,,s,1,1.2944,h,space,0.7829,0,0,0,0,1,0.3142,,
,,,,,,,,NAN,,NAN,,0,139,139,139,1,140,Sam,Rej,Participant_Images/60ef2700e476748689a999f7/60ef2700e476748689a999f7_Images/60ef2700e476748689a999f7_Image_23.jpeg,did not like,3.195382774,,,,,,,,,,,,,,
,,,,,,space,1.3956,NAN,,NAN,,0,140,140,140,1,141,Sam,Rej,Participant_Images/60ef2700e476748689a999f7/60ef2700e476748689a999f7_Images/60ef2700e476748689a999f7_Image_9.jpeg,did not like,1.779333479,,,,,,,,,,,,,,
,,,,,,space,6.0573,NAN,,NAN,,0,141,141,141,1,142,Sam,Rej,Participant_Images/60ef2700e476748689a999f7/60ef2700e476748689a999f7_Images/60ef2700e476748689a999f7_Image_22.jpeg,did not like,4.312468682,,,,,,,,,,,,,,
,,,,,,space,0.3003,NAN,,NAN,,0,142,142,142,1,143,Sam,Rej,Participant_Images/60ef2700e476748689a999f7/60ef2700e476748689a999f7_Images/60ef2700e476748689a999f7_Image_28.jpeg,did not like,4.940433059,,,,,,,,,,,,,,
,,,,,,space,2.3536,NAN,,NAN,,0,143,143,143,1,144,Sam,Rej,Participant_Images/60ef2700e476748689a999f7/60ef2700e476748689a999f7_Images/60ef2700e476748689a999f7_Image_4.jpeg,liked,2.7105123,,,,,,,,,,,,,,
,,,,,,,,,,,,,,,,,,,,,,,s,1,1.8292,h,space,0.551,0,0,0,0,1,0.2986,,
,,,,,,,,NAN,,NAN,,0,144,144,144,1,145,Sam,Rej,Participant_Images/60ef2700e476748689a999f7/60ef2700e476748689a999f7_Images/60ef2700e476748689a999f7_Image_24.jpeg,liked,3.602308302,,,,,,,,,,,,,,
,,,,,,space,0.9787,NAN,,NAN,,0,145,145,145,1,146,Sam,Rej,Participant_Images/60ef2700e476748689a999f7/60ef2700e476748689a999f7_Images/60ef2700e476748689a999f7_Image_14.jpeg,did not like,4.106391878,,,,,,,,,,,,,,
,,,,,,space,1.1855,NAN,,NAN,,0,146,146,146,1,147,Sam,Rej,Participant_Images/60ef2700e476748689a999f7/60ef2700e476748689a999f7_Images/60ef2700e476748689a999f7_Image_13.jpeg,did not like,3.799433026,,,,,,,,,,,,,,
,,,,,,space,0.944,NAN,,NAN,,0,147,147,147,1,148,Sam,Rej,Participant_Images/60ef2700e476748689a999f7/60ef2700e476748689a999f7_Images/60ef2700e476748689a999f7_Image_15.jpeg,liked,5.246980764,,,,,,,,,,,,,,
,,,,,,space,0.6552,NAN,,NAN,,0,148,148,148,1,149,Sam,Rej,Participant_Images/60ef2700e476748689a999f7/60ef2700e476748689a999f7_Images/60ef2700e476748689a999f7_Image_10.jpeg,did not like,3.30081769,,,,,,,,,,,,,,
,,,,,,,,,,,,,,,,,,,,,,,s,1,1.9159,h,space,8.3589,0,0,0,0,1,0.2785,,
,,,,,,,,1,,1,,0,149,149,149,1,150,Sam,Rej,Participant_Images/60ef2700e476748689a999f7/60ef2700e476748689a999f7_Images/60ef2700e476748689a999f7_Image_30.jpeg,did not like,1.661473164,,,,,,,,,,,,,,
,,,,,,,,,,,,,,,,,,,,,,,,,,,,,,,,,,,space,1.8655
