PROLIFIC_ID,endwelcomescreen_keys.keys,endwelcomescreen_keys.rt,endinstructionscreen_keys.keys,endinstructionscreen_keys.rt,endpartnermatch_keys.keys,endpartnermatch_keys.rt,sharenextphoto_key.keys,sharenextphoto_key.rt,salience_rating,key_resp.keys,stress_level,stresslevel_keypress.keys,entiretaskloop.thisRepN,entiretaskloop.thisTrialN,entiretaskloop.thisN,entiretaskloop.thisIndex,entiretaskloop.ran,TrialNumber,Partner,Condition,Photos,Feedback,FeedbackWait,choice_keys.keys,playlottery,resumeafterlottery_keys.keys,resumeafterlottery_keys.rt,lotteryloop.thisRepN,lotteryloop.thisTrialN,lotteryloop.thisN,lotteryloop.thisIndex,lotteryloop.ran,choice_keys.rt,lotteryguess_keys.keys,lotteryguess_keys.rt,end_screen_keys.keys,end_screen_keys.rt
60fd80b85dd6b22f66d16822,space,10.622,,,,,,,,,,,,,,,,,,,,,,,,,,,,,,,,,,,
,,,,,,,,,,,,,,,,,,,,,,,,,,,,,,,,,,,,,
,,,space,17.828,,,,,,,,,,,,,,,,,,,,,,,,,,,,,,,,,
,,,,,space,2.38,space,1.58,NAN,,NAN,,0,0,0,0,1,1,Charlie,Rej,Participant_Images/60fd80b85dd6b22f66d16822/60fd80b85dd6b22f66d16822_Images/60fd80b85dd6b22f66d16822_Image_21.jpeg,did not like,3.613205605,,,,,,,,,,,,,,
,,,,,,,space,3.058,NAN,,NAN,,0,1,1,1,1,2,Charlie,Rej,Participant_Images/60fd80b85dd6b22f66d16822/60fd80b85dd6b22f66d16822_Images/60fd80b85dd6b22f66d16822_Image_19.jpeg,liked,4.988446431,,,,,,,,,,,,,,
,,,,,,,space,0.508,NAN,,NAN,,0,2,2,2,1,3,Charlie,Rej,Participant_Images/60fd80b85dd6b22f66d16822/60fd80b85dd6b22f66d16822_Images/60fd80b85dd6b22f66d16822_Image_14.jpeg,did not like,3.470791822,,,,,,,,,,,,,,
,,,,,,,space,0.749,NAN,,NAN,,0,3,3,3,1,4,Charlie,Rej,Participant_Images/60fd80b85dd6b22f66d16822/60fd80b85dd6b22f66d16822_Images/60fd80b85dd6b22f66d16822_Image_27.jpeg,did not like,3.820572462,,,,,,,,,,,,,,
,,,,,,,,,,,,,,,,,,,,,,,,,999,space,4.369,0,0,0,0,1,,,,,
,,,,,,,,,NAN,,NAN,,0,4,4,4,1,5,Charlie,Rej,Participant_Images/60fd80b85dd6b22f66d16822/60fd80b85dd6b22f66d16822_Images/60fd80b85dd6b22f66d16822_Image_16.jpeg,liked,2.455989137,,,,,,,,,,,,,,
,,,,,,,space,1.906,NAN,,NAN,,0,5,5,5,1,6,Charlie,Rej,Participant_Images/60fd80b85dd6b22f66d16822/60fd80b85dd6b22f66d16822_Images/60fd80b85dd6b22f66d16822_Image_26.jpeg,did not like,3.79605092,,,,,,,,,,,,,,
,,,,,,,space,1.972,NAN,,NAN,,0,6,6,6,1,7,Charlie,Rej,Participant_Images/60fd80b85dd6b22f66d16822/60fd80b85dd6b22f66d16822_Images/60fd80b85dd6b22f66d16822_Image_22.jpeg,did not like,3.562416326,,,,,,,,,,,,,,
,,,,,,,space,0.726,NAN,,NAN,,0,7,7,7,1,8,Charlie,Rej,Participant_Images/60fd80b85dd6b22f66d16822/60fd80b85dd6b22f66d16822_Images/60fd80b85dd6b22f66d16822_Image_10.jpeg,did not like,2.843822497,,,,,,,,,,,,,,
,,,,,,,space,0.586,NAN,,NAN,,0,8,8,8,1,9,Charlie,Rej,Participant_Images/60fd80b85dd6b22f66d16822/60fd80b85dd6b22f66d16822_Images/60fd80b85dd6b22f66d16822_Image_8.jpeg,did not like,3.546495948,,,,,,,,,,,,,,
,,,,,,,,,,,,,,,,,,,,,,,,c,0,space,0.762,0,0,0,0,1,1.902,,,,
,,,,,,,,,NAN,,NAN,,0,9,9,9,1,10,Charlie,Rej,Participant_Images/60fd80b85dd6b22f66d16822/60fd80b85dd6b22f66d16822_Images/60fd80b85dd6b22f66d16822_Image_6.jpeg,did not like,1.672012706,,,,,,,,,,,,,,
,,,,,,,space,0.96,NAN,,NAN,,0,10,10,10,1,11,Charlie,Rej,Participant_Images/60fd80b85dd6b22f66d16822/60fd80b85dd6b22f66d16822_Images/60fd80b85dd6b22f66d16822_Image_25.jpeg,liked,4.942172136,,,,,,,,,,,,,,
,,,,,,,space,0.656,NAN,,NAN,,0,11,11,11,1,12,Charlie,Rej,Participant_Images/60fd80b85dd6b22f66d16822/60fd80b85dd6b22f66d16822_Images/60fd80b85dd6b22f66d16822_Image_28.jpeg,liked,2.50187214,,,,,,,,,,,,,,
,,,,,,,space,0.518,NAN,,NAN,,0,12,12,12,1,13,Charlie,Rej,Participant_Images/60fd80b85dd6b22f66d16822/60fd80b85dd6b22f66d16822_Images/60fd80b85dd6b22f66d16822_Image_3.jpeg,liked,2.071164779,,,,,,,,,,,,,,
,,,,,,,space,1.373,NAN,,NAN,,0,13,13,13,1,14,Charlie,Rej,Participant_Images/60fd80b85dd6b22f66d16822/60fd80b85dd6b22f66d16822_Images/60fd80b85dd6b22f66d16822_Image_15.jpeg,did not like,5.336503566,,,,,,,,,,,,,,
,,,,,,,,,,,,,,,,,,,,,,,,s,1,space,1.392,0,0,0,0,1,1.543,l,2.7,,
,,,,,,,,,NAN,,NAN,,0,14,14,14,1,15,Charlie,Rej,Participant_Images/60fd80b85dd6b22f66d16822/60fd80b85dd6b22f66d16822_Images/60fd80b85dd6b22f66d16822_Image_2.jpeg,liked,2.642157193,,,,,,,,,,,,,,
,,,,,,,space,1.022,NAN,,NAN,,0,15,15,15,1,16,Charlie,Rej,Participant_Images/60fd80b85dd6b22f66d16822/60fd80b85dd6b22f66d16822_Images/60fd80b85dd6b22f66d16822_Image_11.jpeg,liked,4.456234322,,,,,,,,,,,,,,
,,,,,,,space,0.676,NAN,,NAN,,0,16,16,16,1,17,Charlie,Rej,Participant_Images/60fd80b85dd6b22f66d16822/60fd80b85dd6b22f66d16822_Images/60fd80b85dd6b22f66d16822_Image_9.jpeg,did not like,4.438512181,,,,,,,,,,,,,,
,,,,,,,space,0.616,NAN,,NAN,,0,17,17,17,1,18,Charlie,Rej,Participant_Images/60fd80b85dd6b22f66d16822/60fd80b85dd6b22f66d16822_Images/60fd80b85dd6b22f66d16822_Image_13.jpeg,did not like,2.682944783,,,,,,,,,,,,,,
,,,,,,,space,1.182,NAN,,NAN,,0,18,18,18,1,19,Charlie,Rej,Participant_Images/60fd80b85dd6b22f66d16822/60fd80b85dd6b22f66d16822_Images/60fd80b85dd6b22f66d16822_Image_12.jpeg,liked,4.51984296,,,,,,,,,,,,,,
,,,,,,,,,,,,,,,,,,,,,,,,c,0,space,1.04,0,0,0,0,1,2.88,,,,
,,,,,,,,,NAN,,NAN,,0,19,19,19,1,20,Charlie,Rej,Participant_Images/60fd80b85dd6b22f66d16822/60fd80b85dd6b22f66d16822_Images/60fd80b85dd6b22f66d16822_Image_18.jpeg,did not like,3.195382774,,,,,,,,,,,,,,
,,,,,,,space,2.416,NAN,,NAN,,0,20,20,20,1,21,Charlie,Rej,Participant_Images/60fd80b85dd6b22f66d16822/60fd80b85dd6b22f66d16822_Images/60fd80b85dd6b22f66d16822_Image_24.jpeg,did not like,1.779333479,,,,,,,,,,,,,,
,,,,,,,space,0.706,NAN,,NAN,,0,21,21,21,1,22,Charlie,Rej,Participant_Images/60fd80b85dd6b22f66d16822/60fd80b85dd6b22f66d16822_Images/60fd80b85dd6b22f66d16822_Image_29.jpeg,liked,4.312468682,,,,,,,,,,,,,,
,,,,,,,space,0.5,NAN,,NAN,,0,22,22,22,1,23,Charlie,Rej,Participant_Images/60fd80b85dd6b22f66d16822/60fd80b85dd6b22f66d16822_Images/60fd80b85dd6b22f66d16822_Image_30.jpeg,did not like,4.940433059,,,,,,,,,,,,,,
,,,,,,,space,1.688,NAN,,NAN,,0,23,23,23,1,24,Charlie,Rej,Participant_Images/60fd80b85dd6b22f66d16822/60fd80b85dd6b22f66d16822_Images/60fd80b85dd6b22f66d16822_Image_4.jpeg,did not like,2.7105123,,,,,,,,,,,,,,
,,,,,,,,,,,,,,,,,,,,,,,,c,0,space,1.221,0,0,0,0,1,1.739,,,,
,,,,,,,,,NAN,,NAN,,0,24,24,24,1,25,Charlie,Rej,Participant_Images/60fd80b85dd6b22f66d16822/60fd80b85dd6b22f66d16822_Images/60fd80b85dd6b22f66d16822_Image_7.jpeg,did not like,3.602308302,,,,,,,,,,,,,,
,,,,,,,space,0.652,NAN,,NAN,,0,25,25,25,1,26,Charlie,Rej,Participant_Images/60fd80b85dd6b22f66d16822/60fd80b85dd6b22f66d16822_Images/60fd80b85dd6b22f66d16822_Image_20.jpeg,did not like,4.106391878,,,,,,,,,,,,,,
,,,,,,,space,0.92,NAN,,NAN,,0,26,26,26,1,27,Charlie,Rej,Participant_Images/60fd80b85dd6b22f66d16822/60fd80b85dd6b22f66d16822_Images/60fd80b85dd6b22f66d16822_Image_23.jpeg,did not like,3.799433026,,,,,,,,,,,,,,
,,,,,,,space,0.741,NAN,,NAN,,0,27,27,27,1,28,Charlie,Rej,Participant_Images/60fd80b85dd6b22f66d16822/60fd80b85dd6b22f66d16822_Images/60fd80b85dd6b22f66d16822_Image_1.jpeg,did not like,5.246980764,,,,,,,,,,,,,,
,,,,,,,space,2.859,NAN,,NAN,,0,28,28,28,1,29,Charlie,Rej,Participant_Images/60fd80b85dd6b22f66d16822/60fd80b85dd6b22f66d16822_Images/60fd80b85dd6b22f66d16822_Image_5.jpeg,did not like,3.30081769,,,,,,,,,,,,,,
,,,,,,,,,,,,,,,,,,,,,,,,c,0,space,2.27,0,0,0,0,1,2.314,,,,
,,,,,,,,,1,,4,,0,29,29,29,1,30,Charlie,Rej,Participant_Images/60fd80b85dd6b22f66d16822/60fd80b85dd6b22f66d16822_Images/60fd80b85dd6b22f66d16822_Image_17.jpeg,did not like,1.661473164,,,,,,,,,,,,,,
,,,,,space,2.078,space,1.957,NAN,,NAN,,0,30,30,30,1,31,Riley,Rej,Participant_Images/60fd80b85dd6b22f66d16822/60fd80b85dd6b22f66d16822_Images/60fd80b85dd6b22f66d16822_Image_9.jpeg,did not like,3.613205605,,,,,,,,,,,,,,
,,,,,,,space,6.211,NAN,,NAN,,0,31,31,31,1,32,Riley,Rej,Participant_Images/60fd80b85dd6b22f66d16822/60fd80b85dd6b22f66d16822_Images/60fd80b85dd6b22f66d16822_Image_5.jpeg,did not like,4.988446431,,,,,,,,,,,,,,
,,,,,,,space,0.964,NAN,,NAN,,0,32,32,32,1,33,Riley,Rej,Participant_Images/60fd80b85dd6b22f66d16822/60fd80b85dd6b22f66d16822_Images/60fd80b85dd6b22f66d16822_Image_4.jpeg,did not like,3.470791822,,,,,,,,,,,,,,
,,,,,,,space,1.727,NAN,,NAN,,0,33,33,33,1,34,Riley,Rej,Participant_Images/60fd80b85dd6b22f66d16822/60fd80b85dd6b22f66d16822_Images/60fd80b85dd6b22f66d16822_Image_8.jpeg,liked,3.820572462,,,,,,,,,,,,,,
,,,,,,,,,,,,,,,,,,,,,,,,c,0,space,3.617,0,0,0,0,1,1.961,,,,
,,,,,,,,,NAN,,NAN,,0,34,34,34,1,35,Riley,Rej,Participant_Images/60fd80b85dd6b22f66d16822/60fd80b85dd6b22f66d16822_Images/60fd80b85dd6b22f66d16822_Image_14.jpeg,did not like,2.455989137,,,,,,,,,,,,,,
,,,,,,,space,0.724,NAN,,NAN,,0,35,35,35,1,36,Riley,Rej,Participant_Images/60fd80b85dd6b22f66d16822/60fd80b85dd6b22f66d16822_Images/60fd80b85dd6b22f66d16822_Image_28.jpeg,did not like,3.79605092,,,,,,,,,,,,,,
,,,,,,,space,1.301,NAN,,NAN,,0,36,36,36,1,37,Riley,Rej,Participant_Images/60fd80b85dd6b22f66d16822/60fd80b85dd6b22f66d16822_Images/60fd80b85dd6b22f66d16822_Image_27.jpeg,did not like,3.562416326,,,,,,,,,,,,,,
,,,,,,,space,1.905,NAN,,NAN,,0,37,37,37,1,38,Riley,Rej,Participant_Images/60fd80b85dd6b22f66d16822/60fd80b85dd6b22f66d16822_Images/60fd80b85dd6b22f66d16822_Image_1.jpeg,did not like,2.843822497,,,,,,,,,,,,,,
,,,,,,,space,1.879,NAN,,NAN,,0,38,38,38,1,39,Riley,Rej,Participant_Images/60fd80b85dd6b22f66d16822/60fd80b85dd6b22f66d16822_Images/60fd80b85dd6b22f66d16822_Image_3.jpeg,did not like,3.546495948,,,,,,,,,,,,,,
,,,,,,,,,,,,,,,,,,,,,,,,c,0,space,1.073,0,0,0,0,1,1.711,,,,
,,,,,,,,,NAN,,NAN,,0,39,39,39,1,40,Riley,Rej,Participant_Images/60fd80b85dd6b22f66d16822/60fd80b85dd6b22f66d16822_Images/60fd80b85dd6b22f66d16822_Image_16.jpeg,did not like,1.672012706,,,,,,,,,,,,,,
,,,,,,,space,0.973,NAN,,NAN,,0,40,40,40,1,41,Riley,Rej,Participant_Images/60fd80b85dd6b22f66d16822/60fd80b85dd6b22f66d16822_Images/60fd80b85dd6b22f66d16822_Image_22.jpeg,did not like,4.942172136,,,,,,,,,,,,,,
,,,,,,,space,1.55,NAN,,NAN,,0,41,41,41,1,42,Riley,Rej,Participant_Images/60fd80b85dd6b22f66d16822/60fd80b85dd6b22f66d16822_Images/60fd80b85dd6b22f66d16822_Image_2.jpeg,did not like,2.50187214,,,,,,,,,,,,,,
,,,,,,,space,2.474,NAN,,NAN,,0,42,42,42,1,43,Riley,Rej,Participant_Images/60fd80b85dd6b22f66d16822/60fd80b85dd6b22f66d16822_Images/60fd80b85dd6b22f66d16822_Image_20.jpeg,did not like,2.071164779,,,,,,,,,,,,,,
,,,,,,,space,1.128,NAN,,NAN,,0,43,43,43,1,44,Riley,Rej,Participant_Images/60fd80b85dd6b22f66d16822/60fd80b85dd6b22f66d16822_Images/60fd80b85dd6b22f66d16822_Image_13.jpeg,liked,5.336503566,,,,,,,,,,,,,,
,,,,,,,,,,,,,,,,,,,,,,,,c,0,space,0.887,0,0,0,0,1,1.011,,,,
,,,,,,,,,NAN,,NAN,,0,44,44,44,1,45,Riley,Rej,Participant_Images/60fd80b85dd6b22f66d16822/60fd80b85dd6b22f66d16822_Images/60fd80b85dd6b22f66d16822_Image_18.jpeg,did not like,2.642157193,,,,,,,,,,,,,,
,,,,,,,space,0.302,NAN,,NAN,,0,45,45,45,1,46,Riley,Rej,Participant_Images/60fd80b85dd6b22f66d16822/60fd80b85dd6b22f66d16822_Images/60fd80b85dd6b22f66d16822_Image_6.jpeg,did not like,4.456234322,,,,,,,,,,,,,,
,,,,,,,space,3.059,NAN,,NAN,,0,46,46,46,1,47,Riley,Rej,Participant_Images/60fd80b85dd6b22f66d16822/60fd80b85dd6b22f66d16822_Images/60fd80b85dd6b22f66d16822_Image_12.jpeg,did not like,4.438512181,,,,,,,,,,,,,,
,,,,,,,space,1.257,NAN,,NAN,,0,47,47,47,1,48,Riley,Rej,Participant_Images/60fd80b85dd6b22f66d16822/60fd80b85dd6b22f66d16822_Images/60fd80b85dd6b22f66d16822_Image_7.jpeg,did not like,2.682944783,,,,,,,,,,,,,,
,,,,,,,space,1.291,NAN,,NAN,,0,48,48,48,1,49,Riley,Rej,Participant_Images/60fd80b85dd6b22f66d16822/60fd80b85dd6b22f66d16822_Images/60fd80b85dd6b22f66d16822_Image_29.jpeg,liked,4.51984296,,,,,,,,,,,,,,
,,,,,,,,,,,,,,,,,,,,,,,,c,0,space,1.19,0,0,0,0,1,1.417,,,,
,,,,,,,,,NAN,,NAN,,0,49,49,49,1,50,Riley,Rej,Participant_Images/60fd80b85dd6b22f66d16822/60fd80b85dd6b22f66d16822_Images/60fd80b85dd6b22f66d16822_Image_10.jpeg,liked,3.195382774,,,,,,,,,,,,,,
,,,,,,,space,1.005,NAN,,NAN,,0,50,50,50,1,51,Riley,Rej,Participant_Images/60fd80b85dd6b22f66d16822/60fd80b85dd6b22f66d16822_Images/60fd80b85dd6b22f66d16822_Image_30.jpeg,liked,1.779333479,,,,,,,,,,,,,,
,,,,,,,space,1.07,NAN,,NAN,,0,51,51,51,1,52,Riley,Rej,Participant_Images/60fd80b85dd6b22f66d16822/60fd80b85dd6b22f66d16822_Images/60fd80b85dd6b22f66d16822_Image_15.jpeg,did not like,4.312468682,,,,,,,,,,,,,,
,,,,,,,space,0.837,NAN,,NAN,,0,52,52,52,1,53,Riley,Rej,Participant_Images/60fd80b85dd6b22f66d16822/60fd80b85dd6b22f66d16822_Images/60fd80b85dd6b22f66d16822_Image_19.jpeg,liked,4.940433059,,,,,,,,,,,,,,
,,,,,,,space,0.568,NAN,,NAN,,0,53,53,53,1,54,Riley,Rej,Participant_Images/60fd80b85dd6b22f66d16822/60fd80b85dd6b22f66d16822_Images/60fd80b85dd6b22f66d16822_Image_21.jpeg,did not like,2.7105123,,,,,,,,,,,,,,
,,,,,,,,,,,,,,,,,,,,,,,,c,0,space,0.722,0,0,0,0,1,1.617,,,,
,,,,,,,,,NAN,,NAN,,0,54,54,54,1,55,Riley,Rej,Participant_Images/60fd80b85dd6b22f66d16822/60fd80b85dd6b22f66d16822_Images/60fd80b85dd6b22f66d16822_Image_17.jpeg,did not like,3.602308302,,,,,,,,,,,,,,
,,,,,,,space,0.57,NAN,,NAN,,0,55,55,55,1,56,Riley,Rej,Participant_Images/60fd80b85dd6b22f66d16822/60fd80b85dd6b22f66d16822_Images/60fd80b85dd6b22f66d16822_Image_23.jpeg,did not like,4.106391878,,,,,,,,,,,,,,
,,,,,,,space,0.569,NAN,,NAN,,0,56,56,56,1,57,Riley,Rej,Participant_Images/60fd80b85dd6b22f66d16822/60fd80b85dd6b22f66d16822_Images/60fd80b85dd6b22f66d16822_Image_11.jpeg,liked,3.799433026,,,,,,,,,,,,,,
,,,,,,,space,1.361,NAN,,NAN,,0,57,57,57,1,58,Riley,Rej,Participant_Images/60fd80b85dd6b22f66d16822/60fd80b85dd6b22f66d16822_Images/60fd80b85dd6b22f66d16822_Image_24.jpeg,liked,5.246980764,,,,,,,,,,,,,,
,,,,,,,space,1.221,NAN,,NAN,,0,58,58,58,1,59,Riley,Rej,Participant_Images/60fd80b85dd6b22f66d16822/60fd80b85dd6b22f66d16822_Images/60fd80b85dd6b22f66d16822_Image_26.jpeg,did not like,3.30081769,,,,,,,,,,,,,,
,,,,,,,,,,,,,,,,,,,,,,,,c,0,space,0.853,0,0,0,0,1,1.096,,,,
,,,,,,,,,2,,5,,0,59,59,59,1,60,Riley,Rej,Participant_Images/60fd80b85dd6b22f66d16822/60fd80b85dd6b22f66d16822_Images/60fd80b85dd6b22f66d16822_Image_25.jpeg,liked,1.661473164,,,,,,,,,,,,,,
,,,,,space,1.515,space,0.573,NAN,,NAN,,0,60,60,60,1,61,Taylor,Neutral,Participant_Images/60fd80b85dd6b22f66d16822/60fd80b85dd6b22f66d16822_Images/60fd80b85dd6b22f66d16822_Image_25.jpeg,liked,3.613205605,,,,,,,,,,,,,,
,,,,,,,space,4.004,NAN,,NAN,,0,61,61,61,1,62,Taylor,Neutral,Participant_Images/60fd80b85dd6b22f66d16822/60fd80b85dd6b22f66d16822_Images/60fd80b85dd6b22f66d16822_Image_11.jpeg,liked,4.988446431,,,,,,,,,,,,,,
,,,,,,,space,0.985,NAN,,NAN,,0,62,62,62,1,63,Taylor,Neutral,Participant_Images/60fd80b85dd6b22f66d16822/60fd80b85dd6b22f66d16822_Images/60fd80b85dd6b22f66d16822_Image_24.jpeg,did not like,3.470791822,,,,,,,,,,,,,,
,,,,,,,space,0.416,NAN,,NAN,,0,63,63,63,1,64,Taylor,Neutral,Participant_Images/60fd80b85dd6b22f66d16822/60fd80b85dd6b22f66d16822_Images/60fd80b85dd6b22f66d16822_Image_18.jpeg,did not like,3.820572462,,,,,,,,,,,,,,
,,,,,,,,,,,,,,,,,,,,,,,,c,0,space,7.113,0,0,0,0,1,1.699,,,,
,,,,,,,,,NAN,,NAN,,0,64,64,64,1,65,Taylor,Neutral,Participant_Images/60fd80b85dd6b22f66d16822/60fd80b85dd6b22f66d16822_Images/60fd80b85dd6b22f66d16822_Image_22.jpeg,did not like,2.455989137,,,,,,,,,,,,,,
,,,,,,,space,0.798,NAN,,NAN,,0,65,65,65,1,66,Taylor,Neutral,Participant_Images/60fd80b85dd6b22f66d16822/60fd80b85dd6b22f66d16822_Images/60fd80b85dd6b22f66d16822_Image_30.jpeg,did not like,3.79605092,,,,,,,,,,,,,,
,,,,,,,space,1.592,NAN,,NAN,,0,66,66,66,1,67,Taylor,Neutral,Participant_Images/60fd80b85dd6b22f66d16822/60fd80b85dd6b22f66d16822_Images/60fd80b85dd6b22f66d16822_Image_28.jpeg,liked,3.562416326,,,,,,,,,,,,,,
,,,,,,,space,0.554,NAN,,NAN,,0,67,67,67,1,68,Taylor,Neutral,Participant_Images/60fd80b85dd6b22f66d16822/60fd80b85dd6b22f66d16822_Images/60fd80b85dd6b22f66d16822_Image_19.jpeg,liked,2.843822497,,,,,,,,,,,,,,
,,,,,,,space,0.605,NAN,,NAN,,0,68,68,68,1,69,Taylor,Neutral,Participant_Images/60fd80b85dd6b22f66d16822/60fd80b85dd6b22f66d16822_Images/60fd80b85dd6b22f66d16822_Image_10.jpeg,did not like,3.546495948,,,,,,,,,,,,,,
,,,,,,,,,,,,,,,,,,,,,,,,c,0,space,1.078,0,0,0,0,1,1.15,,,,
,,,,,,,,,NAN,,NAN,,0,69,69,69,1,70,Taylor,Neutral,Participant_Images/60fd80b85dd6b22f66d16822/60fd80b85dd6b22f66d16822_Images/60fd80b85dd6b22f66d16822_Image_16.jpeg,did not like,1.672012706,,,,,,,,,,,,,,
,,,,,,,space,1.023,NAN,,NAN,,0,70,70,70,1,71,Taylor,Neutral,Participant_Images/60fd80b85dd6b22f66d16822/60fd80b85dd6b22f66d16822_Images/60fd80b85dd6b22f66d16822_Image_14.jpeg,liked,4.942172136,,,,,,,,,,,,,,
,,,,,,,space,0.806,NAN,,NAN,,0,71,71,71,1,72,Taylor,Neutral,Participant_Images/60fd80b85dd6b22f66d16822/60fd80b85dd6b22f66d16822_Images/60fd80b85dd6b22f66d16822_Image_7.jpeg,did not like,2.50187214,,,,,,,,,,,,,,
,,,,,,,space,1.543,NAN,,NAN,,0,72,72,72,1,73,Taylor,Neutral,Participant_Images/60fd80b85dd6b22f66d16822/60fd80b85dd6b22f66d16822_Images/60fd80b85dd6b22f66d16822_Image_1.jpeg,liked,2.071164779,,,,,,,,,,,,,,
,,,,,,,space,0.844,NAN,,NAN,,0,73,73,73,1,74,Taylor,Neutral,Participant_Images/60fd80b85dd6b22f66d16822/60fd80b85dd6b22f66d16822_Images/60fd80b85dd6b22f66d16822_Image_21.jpeg,liked,5.336503566,,,,,,,,,,,,,,
,,,,,,,,,,,,,,,,,,,,,,,,c,0,space,0.881,0,0,0,0,1,1.508,,,,
,,,,,,,,,NAN,,NAN,,0,74,74,74,1,75,Taylor,Neutral,Participant_Images/60fd80b85dd6b22f66d16822/60fd80b85dd6b22f66d16822_Images/60fd80b85dd6b22f66d16822_Image_20.jpeg,did not like,2.642157193,,,,,,,,,,,,,,
,,,,,,,space,0.846,NAN,,NAN,,0,75,75,75,1,76,Taylor,Neutral,Participant_Images/60fd80b85dd6b22f66d16822/60fd80b85dd6b22f66d16822_Images/60fd80b85dd6b22f66d16822_Image_4.jpeg,did not like,4.456234322,,,,,,,,,,,,,,
,,,,,,,space,3.792,NAN,,NAN,,0,76,76,76,1,77,Taylor,Neutral,Participant_Images/60fd80b85dd6b22f66d16822/60fd80b85dd6b22f66d16822_Images/60fd80b85dd6b22f66d16822_Image_6.jpeg,liked,4.438512181,,,,,,,,,,,,,,
,,,,,,,space,1.004,NAN,,NAN,,0,77,77,77,1,78,Taylor,Neutral,Participant_Images/60fd80b85dd6b22f66d16822/60fd80b85dd6b22f66d16822_Images/60fd80b85dd6b22f66d16822_Image_29.jpeg,liked,2.682944783,,,,,,,,,,,,,,
,,,,,,,space,0.563,NAN,,NAN,,0,78,78,78,1,79,Taylor,Neutral,Participant_Images/60fd80b85dd6b22f66d16822/60fd80b85dd6b22f66d16822_Images/60fd80b85dd6b22f66d16822_Image_13.jpeg,did not like,4.51984296,,,,,,,,,,,,,,
,,,,,,,,,,,,,,,,,,,,,,,,c,0,space,0.446,0,0,0,0,1,1.214,,,,
,,,,,,,,,NAN,,NAN,,0,79,79,79,1,80,Taylor,Neutral,Participant_Images/60fd80b85dd6b22f66d16822/60fd80b85dd6b22f66d16822_Images/60fd80b85dd6b22f66d16822_Image_27.jpeg,liked,3.195382774,,,,,,,,,,,,,,
,,,,,,,space,0.806,NAN,,NAN,,0,80,80,80,1,81,Taylor,Neutral,Participant_Images/60fd80b85dd6b22f66d16822/60fd80b85dd6b22f66d16822_Images/60fd80b85dd6b22f66d16822_Image_23.jpeg,liked,1.779333479,,,,,,,,,,,,,,
,,,,,,,space,1.038,NAN,,NAN,,0,81,81,81,1,82,Taylor,Neutral,Participant_Images/60fd80b85dd6b22f66d16822/60fd80b85dd6b22f66d16822_Images/60fd80b85dd6b22f66d16822_Image_3.jpeg,did not like,4.312468682,,,,,,,,,,,,,,
,,,,,,,space,0.618,NAN,,NAN,,0,82,82,82,1,83,Taylor,Neutral,Participant_Images/60fd80b85dd6b22f66d16822/60fd80b85dd6b22f66d16822_Images/60fd80b85dd6b22f66d16822_Image_9.jpeg,liked,4.940433059,,,,,,,,,,,,,,
,,,,,,,space,0.502,NAN,,NAN,,0,83,83,83,1,84,Taylor,Neutral,Participant_Images/60fd80b85dd6b22f66d16822/60fd80b85dd6b22f66d16822_Images/60fd80b85dd6b22f66d16822_Image_26.jpeg,did not like,2.7105123,,,,,,,,,,,,,,
,,,,,,,,,,,,,,,,,,,,,,,,c,0,space,1.071,0,0,0,0,1,1.016,,,,
,,,,,,,,,NAN,,NAN,,0,84,84,84,1,85,Taylor,Neutral,Participant_Images/60fd80b85dd6b22f66d16822/60fd80b85dd6b22f66d16822_Images/60fd80b85dd6b22f66d16822_Image_12.jpeg,liked,3.602308302,,,,,,,,,,,,,,
,,,,,,,space,0.687,NAN,,NAN,,0,85,85,85,1,86,Taylor,Neutral,Participant_Images/60fd80b85dd6b22f66d16822/60fd80b85dd6b22f66d16822_Images/60fd80b85dd6b22f66d16822_Image_5.jpeg,did not like,4.106391878,,,,,,,,,,,,,,
,,,,,,,space,0.819,NAN,,NAN,,0,86,86,86,1,87,Taylor,Neutral,Participant_Images/60fd80b85dd6b22f66d16822/60fd80b85dd6b22f66d16822_Images/60fd80b85dd6b22f66d16822_Image_17.jpeg,did not like,3.799433026,,,,,,,,,,,,,,
,,,,,,,space,0.57,NAN,,NAN,,0,87,87,87,1,88,Taylor,Neutral,Participant_Images/60fd80b85dd6b22f66d16822/60fd80b85dd6b22f66d16822_Images/60fd80b85dd6b22f66d16822_Image_15.jpeg,did not like,5.246980764,,,,,,,,,,,,,,
,,,,,,,space,0.554,NAN,,NAN,,0,88,88,88,1,89,Taylor,Neutral,Participant_Images/60fd80b85dd6b22f66d16822/60fd80b85dd6b22f66d16822_Images/60fd80b85dd6b22f66d16822_Image_2.jpeg,liked,3.30081769,,,,,,,,,,,,,,
,,,,,,,,,,,,,,,,,,,,,,,,c,0,space,0.507,0,0,0,0,1,1.26,,,,
,,,,,,,,,3,,4,,0,89,89,89,1,90,Taylor,Neutral,Participant_Images/60fd80b85dd6b22f66d16822/60fd80b85dd6b22f66d16822_Images/60fd80b85dd6b22f66d16822_Image_8.jpeg,liked,1.661473164,,,,,,,,,,,,,,
,,,,,space,1.21,space,0.427,NAN,,NAN,,0,90,90,90,1,91,Sam,Acc,Participant_Images/60fd80b85dd6b22f66d16822/60fd80b85dd6b22f66d16822_Images/60fd80b85dd6b22f66d16822_Image_27.jpeg,liked,3.613205605,,,,,,,,,,,,,,
,,,,,,,space,0.332,NAN,,NAN,,0,91,91,91,1,92,Sam,Acc,Participant_Images/60fd80b85dd6b22f66d16822/60fd80b85dd6b22f66d16822_Images/60fd80b85dd6b22f66d16822_Image_4.jpeg,did not like,4.988446431,,,,,,,,,,,,,,
,,,,,,,space,1.602,NAN,,NAN,,0,92,92,92,1,93,Sam,Acc,Participant_Images/60fd80b85dd6b22f66d16822/60fd80b85dd6b22f66d16822_Images/60fd80b85dd6b22f66d16822_Image_11.jpeg,liked,3.470791822,,,,,,,,,,,,,,
,,,,,,,space,0.302,NAN,,NAN,,0,93,93,93,1,94,Sam,Acc,Participant_Images/60fd80b85dd6b22f66d16822/60fd80b85dd6b22f66d16822_Images/60fd80b85dd6b22f66d16822_Image_14.jpeg,did not like,3.820572462,,,,,,,,,,,,,,
,,,,,,,,,,,,,,,,,,,,,,,,s,1,space,0.67,0,0,0,0,1,1.704,l,0.526,,
,,,,,,,,,NAN,,NAN,,0,94,94,94,1,95,Sam,Acc,Participant_Images/60fd80b85dd6b22f66d16822/60fd80b85dd6b22f66d16822_Images/60fd80b85dd6b22f66d16822_Image_1.jpeg,did not like,2.455989137,,,,,,,,,,,,,,
,,,,,,,space,0.792,NAN,,NAN,,0,95,95,95,1,96,Sam,Acc,Participant_Images/60fd80b85dd6b22f66d16822/60fd80b85dd6b22f66d16822_Images/60fd80b85dd6b22f66d16822_Image_26.jpeg,liked,3.79605092,,,,,,,,,,,,,,
,,,,,,,space,0.503,NAN,,NAN,,0,96,96,96,1,97,Sam,Acc,Participant_Images/60fd80b85dd6b22f66d16822/60fd80b85dd6b22f66d16822_Images/60fd80b85dd6b22f66d16822_Image_6.jpeg,did not like,3.562416326,,,,,,,,,,,,,,
,,,,,,,space,0.973,NAN,,NAN,,0,97,97,97,1,98,Sam,Acc,Participant_Images/60fd80b85dd6b22f66d16822/60fd80b85dd6b22f66d16822_Images/60fd80b85dd6b22f66d16822_Image_10.jpeg,liked,2.843822497,,,,,,,,,,,,,,
,,,,,,,space,0.689,NAN,,NAN,,0,98,98,98,1,99,Sam,Acc,Participant_Images/60fd80b85dd6b22f66d16822/60fd80b85dd6b22f66d16822_Images/60fd80b85dd6b22f66d16822_Image_25.jpeg,liked,3.546495948,,,,,,,,,,,,,,
,,,,,,,,,,,,,,,,,,,,,,,,c,0,space,1.254,0,0,0,0,1,1.112,,,,
,,,,,,,,,NAN,,NAN,,0,99,99,99,1,100,Sam,Acc,Participant_Images/60fd80b85dd6b22f66d16822/60fd80b85dd6b22f66d16822_Images/60fd80b85dd6b22f66d16822_Image_9.jpeg,did not like,1.672012706,,,,,,,,,,,,,,
,,,,,,,space,0.435,NAN,,NAN,,0,100,100,100,1,101,Sam,Acc,Participant_Images/60fd80b85dd6b22f66d16822/60fd80b85dd6b22f66d16822_Images/60fd80b85dd6b22f66d16822_Image_8.jpeg,liked,4.942172136,,,,,,,,,,,,,,
,,,,,,,space,0.976,NAN,,NAN,,0,101,101,101,1,102,Sam,Acc,Participant_Images/60fd80b85dd6b22f66d16822/60fd80b85dd6b22f66d16822_Images/60fd80b85dd6b22f66d16822_Image_5.jpeg,liked,2.50187214,,,,,,,,,,,,,,
,,,,,,,space,0.741,NAN,,NAN,,0,102,102,102,1,103,Sam,Acc,Participant_Images/60fd80b85dd6b22f66d16822/60fd80b85dd6b22f66d16822_Images/60fd80b85dd6b22f66d16822_Image_2.jpeg,liked,2.071164779,,,,,,,,,,,,,,
,,,,,,,space,0.476,NAN,,NAN,,0,103,103,103,1,104,Sam,Acc,Participant_Images/60fd80b85dd6b22f66d16822/60fd80b85dd6b22f66d16822_Images/60fd80b85dd6b22f66d16822_Image_30.jpeg,did not like,5.336503566,,,,,,,,,,,,,,
,,,,,,,,,,,,,,,,,,,,,,,,c,0,space,1.258,0,0,0,0,1,1.08,,,,
,,,,,,,,,NAN,,NAN,,0,104,104,104,1,105,Sam,Acc,Participant_Images/60fd80b85dd6b22f66d16822/60fd80b85dd6b22f66d16822_Images/60fd80b85dd6b22f66d16822_Image_20.jpeg,did not like,2.642157193,,,,,,,,,,,,,,
,,,,,,,space,1.088,NAN,,NAN,,0,105,105,105,1,106,Sam,Acc,Participant_Images/60fd80b85dd6b22f66d16822/60fd80b85dd6b22f66d16822_Images/60fd80b85dd6b22f66d16822_Image_12.jpeg,liked,4.456234322,,,,,,,,,,,,,,
,,,,,,,space,0.635,NAN,,NAN,,0,106,106,106,1,107,Sam,Acc,Participant_Images/60fd80b85dd6b22f66d16822/60fd80b85dd6b22f66d16822_Images/60fd80b85dd6b22f66d16822_Image_19.jpeg,liked,4.438512181,,,,,,,,,,,,,,
,,,,,,,space,0.852,NAN,,NAN,,0,107,107,107,1,108,Sam,Acc,Participant_Images/60fd80b85dd6b22f66d16822/60fd80b85dd6b22f66d16822_Images/60fd80b85dd6b22f66d16822_Image_21.jpeg,liked,2.682944783,,,,,,,,,,,,,,
,,,,,,,space,6.962,NAN,,NAN,,0,108,108,108,1,109,Sam,Acc,Participant_Images/60fd80b85dd6b22f66d16822/60fd80b85dd6b22f66d16822_Images/60fd80b85dd6b22f66d16822_Image_7.jpeg,did not like,4.51984296,,,,,,,,,,,,,,
,,,,,,,,,,,,,,,,,,,,,,,,c,0,space,1.371,0,0,0,0,1,2.167,,,,
,,,,,,,,,NAN,,NAN,,0,109,109,109,1,110,Sam,Acc,Participant_Images/60fd80b85dd6b22f66d16822/60fd80b85dd6b22f66d16822_Images/60fd80b85dd6b22f66d16822_Image_29.jpeg,did not like,3.195382774,,,,,,,,,,,,,,
,,,,,,,space,1.18,NAN,,NAN,,0,110,110,110,1,111,Sam,Acc,Participant_Images/60fd80b85dd6b22f66d16822/60fd80b85dd6b22f66d16822_Images/60fd80b85dd6b22f66d16822_Image_3.jpeg,liked,1.779333479,,,,,,,,,,,,,,
,,,,,,,space,0.558,NAN,,NAN,,0,111,111,111,1,112,Sam,Acc,Participant_Images/60fd80b85dd6b22f66d16822/60fd80b85dd6b22f66d16822_Images/60fd80b85dd6b22f66d16822_Image_17.jpeg,liked,4.312468682,,,,,,,,,,,,,,
,,,,,,,space,0.617,NAN,,NAN,,0,112,112,112,1,113,Sam,Acc,Participant_Images/60fd80b85dd6b22f66d16822/60fd80b85dd6b22f66d16822_Images/60fd80b85dd6b22f66d16822_Image_23.jpeg,liked,4.940433059,,,,,,,,,,,,,,
,,,,,,,space,1.355,NAN,,NAN,,0,113,113,113,1,114,Sam,Acc,Participant_Images/60fd80b85dd6b22f66d16822/60fd80b85dd6b22f66d16822_Images/60fd80b85dd6b22f66d16822_Image_13.jpeg,liked,2.7105123,,,,,,,,,,,,,,
,,,,,,,,,,,,,,,,,,,,,,,,c,0,space,0.484,0,0,0,0,1,1.703,,,,
,,,,,,,,,NAN,,NAN,,0,114,114,114,1,115,Sam,Acc,Participant_Images/60fd80b85dd6b22f66d16822/60fd80b85dd6b22f66d16822_Images/60fd80b85dd6b22f66d16822_Image_24.jpeg,liked,3.602308302,,,,,,,,,,,,,,
,,,,,,,space,0.822,NAN,,NAN,,0,115,115,115,1,116,Sam,Acc,Participant_Images/60fd80b85dd6b22f66d16822/60fd80b85dd6b22f66d16822_Images/60fd80b85dd6b22f66d16822_Image_16.jpeg,liked,4.106391878,,,,,,,,,,,,,,
,,,,,,,space,0.902,NAN,,NAN,,0,116,116,116,1,117,Sam,Acc,Participant_Images/60fd80b85dd6b22f66d16822/60fd80b85dd6b22f66d16822_Images/60fd80b85dd6b22f66d16822_Image_15.jpeg,liked,3.799433026,,,,,,,,,,,,,,
,,,,,,,space,0.67,NAN,,NAN,,0,117,117,117,1,118,Sam,Acc,Participant_Images/60fd80b85dd6b22f66d16822/60fd80b85dd6b22f66d16822_Images/60fd80b85dd6b22f66d16822_Image_22.jpeg,liked,5.246980764,,,,,,,,,,,,,,
,,,,,,,space,0.538,NAN,,NAN,,0,118,118,118,1,119,Sam,Acc,Participant_Images/60fd80b85dd6b22f66d16822/60fd80b85dd6b22f66d16822_Images/60fd80b85dd6b22f66d16822_Image_28.jpeg,liked,3.30081769,,,,,,,,,,,,,,
,,,,,,,,,,,,,,,,,,,,,,,,c,0,space,0.557,0,0,0,0,1,1.296,,,,
,,,,,,,,,4,,6,,0,119,119,119,1,120,Sam,Acc,Participant_Images/60fd80b85dd6b22f66d16822/60fd80b85dd6b22f66d16822_Images/60fd80b85dd6b22f66d16822_Image_18.jpeg,liked,1.661473164,,,,,,,,,,,,,,
,,,,,space,0.419,space,0.94,NAN,,NAN,,0,120,120,120,1,121,Alex,Acc,Participant_Images/60fd80b85dd6b22f66d16822/60fd80b85dd6b22f66d16822_Images/60fd80b85dd6b22f66d16822_Image_10.jpeg,did not like,3.613205605,,,,,,,,,,,,,,
,,,,,,,space,0.634,NAN,,NAN,,0,121,121,121,1,122,Alex,Acc,Participant_Images/60fd80b85dd6b22f66d16822/60fd80b85dd6b22f66d16822_Images/60fd80b85dd6b22f66d16822_Image_7.jpeg,liked,4.988446431,,,,,,,,,,,,,,
,,,,,,,space,1.292,NAN,,NAN,,0,122,122,122,1,123,Alex,Acc,Participant_Images/60fd80b85dd6b22f66d16822/60fd80b85dd6b22f66d16822_Images/60fd80b85dd6b22f66d16822_Image_6.jpeg,liked,3.470791822,,,,,,,,,,,,,,
,,,,,,,space,0.598,NAN,,NAN,,0,123,123,123,1,124,Alex,Acc,Participant_Images/60fd80b85dd6b22f66d16822/60fd80b85dd6b22f66d16822_Images/60fd80b85dd6b22f66d16822_Image_17.jpeg,liked,3.820572462,,,,,,,,,,,,,,
,,,,,,,,,,,,,,,,,,,,,,,,c,0,space,1.048,0,0,0,0,1,2.111,,,,
,,,,,,,,,NAN,,NAN,,0,124,124,124,1,125,Alex,Acc,Participant_Images/60fd80b85dd6b22f66d16822/60fd80b85dd6b22f66d16822_Images/60fd80b85dd6b22f66d16822_Image_13.jpeg,liked,2.455989137,,,,,,,,,,,,,,
,,,,,,,space,2.074,NAN,,NAN,,0,125,125,125,1,126,Alex,Acc,Participant_Images/60fd80b85dd6b22f66d16822/60fd80b85dd6b22f66d16822_Images/60fd80b85dd6b22f66d16822_Image_28.jpeg,liked,3.79605092,,,,,,,,,,,,,,
,,,,,,,space,1.003,NAN,,NAN,,0,126,126,126,1,127,Alex,Acc,Participant_Images/60fd80b85dd6b22f66d16822/60fd80b85dd6b22f66d16822_Images/60fd80b85dd6b22f66d16822_Image_30.jpeg,liked,3.562416326,,,,,,,,,,,,,,
,,,,,,,space,0.85,NAN,,NAN,,0,127,127,127,1,128,Alex,Acc,Participant_Images/60fd80b85dd6b22f66d16822/60fd80b85dd6b22f66d16822_Images/60fd80b85dd6b22f66d16822_Image_11.jpeg,liked,2.843822497,,,,,,,,,,,,,,
,,,,,,,space,0.565,NAN,,NAN,,0,128,128,128,1,129,Alex,Acc,Participant_Images/60fd80b85dd6b22f66d16822/60fd80b85dd6b22f66d16822_Images/60fd80b85dd6b22f66d16822_Image_20.jpeg,liked,3.546495948,,,,,,,,,,,,,,
,,,,,,,,,,,,,,,,,,,,,,,,,999,space,5.091,0,0,0,0,1,,,,,
,,,,,,,,,NAN,,NAN,,0,129,129,129,1,130,Alex,Acc,Participant_Images/60fd80b85dd6b22f66d16822/60fd80b85dd6b22f66d16822_Images/60fd80b85dd6b22f66d16822_Image_29.jpeg,did not like,1.672012706,,,,,,,,,,,,,,
,,,,,,,space,1.687,NAN,,NAN,,0,130,130,130,1,131,Alex,Acc,Participant_Images/60fd80b85dd6b22f66d16822/60fd80b85dd6b22f66d16822_Images/60fd80b85dd6b22f66d16822_Image_23.jpeg,did not like,4.942172136,,,,,,,,,,,,,,
,,,,,,,space,0.586,NAN,,NAN,,0,131,131,131,1,132,Alex,Acc,Participant_Images/60fd80b85dd6b22f66d16822/60fd80b85dd6b22f66d16822_Images/60fd80b85dd6b22f66d16822_Image_22.jpeg,did not like,2.50187214,,,,,,,,,,,,,,
,,,,,,,space,0.895,NAN,,NAN,,0,132,132,132,1,133,Alex,Acc,Participant_Images/60fd80b85dd6b22f66d16822/60fd80b85dd6b22f66d16822_Images/60fd80b85dd6b22f66d16822_Image_19.jpeg,liked,2.071164779,,,,,,,,,,,,,,
,,,,,,,space,0.645,NAN,,NAN,,0,133,133,133,1,134,Alex,Acc,Participant_Images/60fd80b85dd6b22f66d16822/60fd80b85dd6b22f66d16822_Images/60fd80b85dd6b22f66d16822_Image_3.jpeg,liked,5.336503566,,,,,,,,,,,,,,
,,,,,,,,,,,,,,,,,,,,,,,,c,0,space,1.147,0,0,0,0,1,1.131,,,,
,,,,,,,,,NAN,,NAN,,0,134,134,134,1,135,Alex,Acc,Participant_Images/60fd80b85dd6b22f66d16822/60fd80b85dd6b22f66d16822_Images/60fd80b85dd6b22f66d16822_Image_1.jpeg,liked,2.642157193,,,,,,,,,,,,,,
,,,,,,,space,1.121,NAN,,NAN,,0,135,135,135,1,136,Alex,Acc,Participant_Images/60fd80b85dd6b22f66d16822/60fd80b85dd6b22f66d16822_Images/60fd80b85dd6b22f66d16822_Image_18.jpeg,did not like,4.456234322,,,,,,,,,,,,,,
,,,,,,,space,1.639,NAN,,NAN,,0,136,136,136,1,137,Alex,Acc,Participant_Images/60fd80b85dd6b22f66d16822/60fd80b85dd6b22f66d16822_Images/60fd80b85dd6b22f66d16822_Image_5.jpeg,liked,4.438512181,,,,,,,,,,,,,,
,,,,,,,space,1.005,NAN,,NAN,,0,137,137,137,1,138,Alex,Acc,Participant_Images/60fd80b85dd6b22f66d16822/60fd80b85dd6b22f66d16822_Images/60fd80b85dd6b22f66d16822_Image_12.jpeg,liked,2.682944783,,,,,,,,,,,,,,
,,,,,,,space,1.19,NAN,,NAN,,0,138,138,138,1,139,Alex,Acc,Participant_Images/60fd80b85dd6b22f66d16822/60fd80b85dd6b22f66d16822_Images/60fd80b85dd6b22f66d16822_Image_21.jpeg,did not like,4.51984296,,,,,,,,,,,,,,
,,,,,,,,,,,,,,,,,,,,,,,,c,0,space,1.019,0,0,0,0,1,1.471,,,,
,,,,,,,,,NAN,,NAN,,0,139,139,139,1,140,Alex,Acc,Participant_Images/60fd80b85dd6b22f66d16822/60fd80b85dd6b22f66d16822_Images/60fd80b85dd6b22f66d16822_Image_26.jpeg,liked,3.195382774,,,,,,,,,,,,,,
,,,,,,,space,0.921,NAN,,NAN,,0,140,140,140,1,141,Alex,Acc,Participant_Images/60fd80b85dd6b22f66d16822/60fd80b85dd6b22f66d16822_Images/60fd80b85dd6b22f66d16822_Image_14.jpeg,liked,1.779333479,,,,,,,,,,,,,,
,,,,,,,space,1.16,NAN,,NAN,,0,141,141,141,1,142,Alex,Acc,Participant_Images/60fd80b85dd6b22f66d16822/60fd80b85dd6b22f66d16822_Images/60fd80b85dd6b22f66d16822_Image_9.jpeg,liked,4.312468682,,,,,,,,,,,,,,
,,,,,,,space,0.639,NAN,,NAN,,0,142,142,142,1,143,Alex,Acc,Participant_Images/60fd80b85dd6b22f66d16822/60fd80b85dd6b22f66d16822_Images/60fd80b85dd6b22f66d16822_Image_8.jpeg,did not like,4.940433059,,,,,,,,,,,,,,
,,,,,,,space,1.054,NAN,,NAN,,0,143,143,143,1,144,Alex,Acc,Participant_Images/60fd80b85dd6b22f66d16822/60fd80b85dd6b22f66d16822_Images/60fd80b85dd6b22f66d16822_Image_4.jpeg,liked,2.7105123,,,,,,,,,,,,,,
,,,,,,,,,,,,,,,,,,,,,,,,c,0,space,1.022,0,0,0,0,1,1.455,,,,
,,,,,,,,,NAN,,NAN,,0,144,144,144,1,145,Alex,Acc,Participant_Images/60fd80b85dd6b22f66d16822/60fd80b85dd6b22f66d16822_Images/60fd80b85dd6b22f66d16822_Image_24.jpeg,did not like,3.602308302,,,,,,,,,,,,,,
,,,,,,,space,0.834,NAN,,NAN,,0,145,145,145,1,146,Alex,Acc,Participant_Images/60fd80b85dd6b22f66d16822/60fd80b85dd6b22f66d16822_Images/60fd80b85dd6b22f66d16822_Image_15.jpeg,liked,4.106391878,,,,,,,,,,,,,,
,,,,,,,space,0.856,NAN,,NAN,,0,146,146,146,1,147,Alex,Acc,Participant_Images/60fd80b85dd6b22f66d16822/60fd80b85dd6b22f66d16822_Images/60fd80b85dd6b22f66d16822_Image_25.jpeg,did not like,3.799433026,,,,,,,,,,,,,,
,,,,,,,space,0.672,NAN,,NAN,,0,147,147,147,1,148,Alex,Acc,Participant_Images/60fd80b85dd6b22f66d16822/60fd80b85dd6b22f66d16822_Images/60fd80b85dd6b22f66d16822_Image_2.jpeg,liked,5.246980764,,,,,,,,,,,,,,
,,,,,,,space,0.835,NAN,,NAN,,0,148,148,148,1,149,Alex,Acc,Participant_Images/60fd80b85dd6b22f66d16822/60fd80b85dd6b22f66d16822_Images/60fd80b85dd6b22f66d16822_Image_27.jpeg,liked,3.30081769,,,,,,,,,,,,,,
,,,,,,,,,,,,,,,,,,,,,,,,c,0,space,2.774,0,0,0,0,1,1.348,,,,
,,,,,,,,,3,,5,,0,149,149,149,1,150,Alex,Acc,Participant_Images/60fd80b85dd6b22f66d16822/60fd80b85dd6b22f66d16822_Images/60fd80b85dd6b22f66d16822_Image_16.jpeg,liked,1.661473164,,,,,,,,,,,,,,
,,,,,,,,,,,,,,,,,,,,,,,,,,,,,,,,,,,,space,2.466
