PROLIFIC_ID,endwelcomescreen_keys.keys,endwelcomescreen_keys.rt,endinstructionscreen_keys.keys,endinstructionscreen_keys.rt,endpartnermatch_keys.keys,endpartnermatch_keys.rt,sharenextphoto_key.keys,sharenextphoto_key.rt,salience_rating,key_resp.keys,stress_level,stresslevel_keypress.keys,entiretaskloop.thisRepN,entiretaskloop.thisTrialN,entiretaskloop.thisN,entiretaskloop.thisIndex,entiretaskloop.ran,TrialNumber,Partner,Condition,Photos,Feedback,FeedbackWait,choice_keys.keys,playlottery,resumeafterlottery_keys.keys,resumeafterlottery_keys.rt,lotteryloop.thisRepN,lotteryloop.thisTrialN,lotteryloop.thisN,lotteryloop.thisIndex,lotteryloop.ran,choice_keys.rt,lotteryguess_keys.keys,lotteryguess_keys.rt,end_screen_keys.keys,end_screen_keys.rt
60ff830d7a7cce48e1787ba2,space,7.8982,,,,,,,,,,,,,,,,,,,,,,,,,,,,,,,,,,,
,,,,,,,,,,,,,,,,,,,,,,,,,,,,,,,,,,,,,
,,,space,13.7651,,,,,,,,,,,,,,,,,,,,,,,,,,,,,,,,,
,,,,,space,1.6892,space,1.0509,NAN,,NAN,,0,0,0,0,1,1,Alex,Acc,Participant_Images/60ff830d7a7cce48e1787ba2/60ff830d7a7cce48e1787ba2_Images/60ff830d7a7cce48e1787ba2_Image_27.jpeg,liked,3.613205605,,,,,,,,,,,,,,
,,,,,,,space,0.8352,NAN,,NAN,,0,1,1,1,1,2,Alex,Acc,Participant_Images/60ff830d7a7cce48e1787ba2/60ff830d7a7cce48e1787ba2_Images/60ff830d7a7cce48e1787ba2_Image_22.jpeg,liked,4.988446431,,,,,,,,,,,,,,
,,,,,,,space,0.9146,NAN,,NAN,,0,2,2,2,1,3,Alex,Acc,Participant_Images/60ff830d7a7cce48e1787ba2/60ff830d7a7cce48e1787ba2_Images/60ff830d7a7cce48e1787ba2_Image_11.jpeg,liked,3.470791822,,,,,,,,,,,,,,
,,,,,,,space,0.7528,NAN,,NAN,,0,3,3,3,1,4,Alex,Acc,Participant_Images/60ff830d7a7cce48e1787ba2/60ff830d7a7cce48e1787ba2_Images/60ff830d7a7cce48e1787ba2_Image_9.jpeg,liked,3.820572462,,,,,,,,,,,,,,
,,,,,,,,,,,,,,,,,,,,,,,,,999,space,2.5664,0,0,0,0,1,,,,,
,,,,,,,,,NAN,,NAN,,0,4,4,4,1,5,Alex,Acc,Participant_Images/60ff830d7a7cce48e1787ba2/60ff830d7a7cce48e1787ba2_Images/60ff830d7a7cce48e1787ba2_Image_4.jpeg,liked,2.455989137,,,,,,,,,,,,,,
,,,,,,,space,0.7323,NAN,,NAN,,0,5,5,5,1,6,Alex,Acc,Participant_Images/60ff830d7a7cce48e1787ba2/60ff830d7a7cce48e1787ba2_Images/60ff830d7a7cce48e1787ba2_Image_15.jpeg,liked,3.79605092,,,,,,,,,,,,,,
,,,,,,,space,0.3862,NAN,,NAN,,0,6,6,6,1,7,Alex,Acc,Participant_Images/60ff830d7a7cce48e1787ba2/60ff830d7a7cce48e1787ba2_Images/60ff830d7a7cce48e1787ba2_Image_24.jpeg,liked,3.562416326,,,,,,,,,,,,,,
,,,,,,,space,0.5543,NAN,,NAN,,0,7,7,7,1,8,Alex,Acc,Participant_Images/60ff830d7a7cce48e1787ba2/60ff830d7a7cce48e1787ba2_Images/60ff830d7a7cce48e1787ba2_Image_26.jpeg,did not like,2.843822497,,,,,,,,,,,,,,
,,,,,,,space,0.6529,NAN,,NAN,,0,8,8,8,1,9,Alex,Acc,Participant_Images/60ff830d7a7cce48e1787ba2/60ff830d7a7cce48e1787ba2_Images/60ff830d7a7cce48e1787ba2_Image_23.jpeg,did not like,3.546495948,,,,,,,,,,,,,,
,,,,,,,,,,,,,,,,,,,,,,,,c,0,space,0.9807,0,0,0,0,1,1.6642,,,,
,,,,,,,,,NAN,,NAN,,0,9,9,9,1,10,Alex,Acc,Participant_Images/60ff830d7a7cce48e1787ba2/60ff830d7a7cce48e1787ba2_Images/60ff830d7a7cce48e1787ba2_Image_25.jpeg,liked,1.672012706,,,,,,,,,,,,,,
,,,,,,,space,0.8571,NAN,,NAN,,0,10,10,10,1,11,Alex,Acc,Participant_Images/60ff830d7a7cce48e1787ba2/60ff830d7a7cce48e1787ba2_Images/60ff830d7a7cce48e1787ba2_Image_19.jpeg,did not like,4.942172136,,,,,,,,,,,,,,
,,,,,,,space,0.4851,NAN,,NAN,,0,11,11,11,1,12,Alex,Acc,Participant_Images/60ff830d7a7cce48e1787ba2/60ff830d7a7cce48e1787ba2_Images/60ff830d7a7cce48e1787ba2_Image_20.jpeg,liked,2.50187214,,,,,,,,,,,,,,
,,,,,,,space,0.5331,NAN,,NAN,,0,12,12,12,1,13,Alex,Acc,Participant_Images/60ff830d7a7cce48e1787ba2/60ff830d7a7cce48e1787ba2_Images/60ff830d7a7cce48e1787ba2_Image_28.jpeg,liked,2.071164779,,,,,,,,,,,,,,
,,,,,,,space,0.6371,NAN,,NAN,,0,13,13,13,1,14,Alex,Acc,Participant_Images/60ff830d7a7cce48e1787ba2/60ff830d7a7cce48e1787ba2_Images/60ff830d7a7cce48e1787ba2_Image_29.jpeg,did not like,5.336503566,,,,,,,,,,,,,,
,,,,,,,,,,,,,,,,,,,,,,,,s,1,space,0.6033,0,0,0,0,1,0.4855,h,2.853,,
,,,,,,,,,NAN,,NAN,,0,14,14,14,1,15,Alex,Acc,Participant_Images/60ff830d7a7cce48e1787ba2/60ff830d7a7cce48e1787ba2_Images/60ff830d7a7cce48e1787ba2_Image_6.jpeg,did not like,2.642157193,,,,,,,,,,,,,,
,,,,,,,space,0.5652,NAN,,NAN,,0,15,15,15,1,16,Alex,Acc,Participant_Images/60ff830d7a7cce48e1787ba2/60ff830d7a7cce48e1787ba2_Images/60ff830d7a7cce48e1787ba2_Image_1.jpeg,liked,4.456234322,,,,,,,,,,,,,,
,,,,,,,space,0.519,NAN,,NAN,,0,16,16,16,1,17,Alex,Acc,Participant_Images/60ff830d7a7cce48e1787ba2/60ff830d7a7cce48e1787ba2_Images/60ff830d7a7cce48e1787ba2_Image_21.jpeg,liked,4.438512181,,,,,,,,,,,,,,
,,,,,,,space,0.5697,NAN,,NAN,,0,17,17,17,1,18,Alex,Acc,Participant_Images/60ff830d7a7cce48e1787ba2/60ff830d7a7cce48e1787ba2_Images/60ff830d7a7cce48e1787ba2_Image_16.jpeg,liked,2.682944783,,,,,,,,,,,,,,
,,,,,,,space,0.6499,NAN,,NAN,,0,18,18,18,1,19,Alex,Acc,Participant_Images/60ff830d7a7cce48e1787ba2/60ff830d7a7cce48e1787ba2_Images/60ff830d7a7cce48e1787ba2_Image_2.jpeg,liked,4.51984296,,,,,,,,,,,,,,
,,,,,,,,,,,,,,,,,,,,,,,,s,1,space,0.6842,0,0,0,0,1,1.3063,h,2.8356,,
,,,,,,,,,NAN,,NAN,,0,19,19,19,1,20,Alex,Acc,Participant_Images/60ff830d7a7cce48e1787ba2/60ff830d7a7cce48e1787ba2_Images/60ff830d7a7cce48e1787ba2_Image_17.jpeg,liked,3.195382774,,,,,,,,,,,,,,
,,,,,,,space,0.5526,NAN,,NAN,,0,20,20,20,1,21,Alex,Acc,Participant_Images/60ff830d7a7cce48e1787ba2/60ff830d7a7cce48e1787ba2_Images/60ff830d7a7cce48e1787ba2_Image_18.jpeg,did not like,1.779333479,,,,,,,,,,,,,,
,,,,,,,space,0.7084,NAN,,NAN,,0,21,21,21,1,22,Alex,Acc,Participant_Images/60ff830d7a7cce48e1787ba2/60ff830d7a7cce48e1787ba2_Images/60ff830d7a7cce48e1787ba2_Image_3.jpeg,liked,4.312468682,,,,,,,,,,,,,,
,,,,,,,space,0.7668,NAN,,NAN,,0,22,22,22,1,23,Alex,Acc,Participant_Images/60ff830d7a7cce48e1787ba2/60ff830d7a7cce48e1787ba2_Images/60ff830d7a7cce48e1787ba2_Image_12.jpeg,did not like,4.940433059,,,,,,,,,,,,,,
,,,,,,,space,0.5915,NAN,,NAN,,0,23,23,23,1,24,Alex,Acc,Participant_Images/60ff830d7a7cce48e1787ba2/60ff830d7a7cce48e1787ba2_Images/60ff830d7a7cce48e1787ba2_Image_7.jpeg,liked,2.7105123,,,,,,,,,,,,,,
,,,,,,,,,,,,,,,,,,,,,,,,s,1,space,0.4645,0,0,0,0,1,1.3609,h,0.6862,,
,,,,,,,,,NAN,,NAN,,0,24,24,24,1,25,Alex,Acc,Participant_Images/60ff830d7a7cce48e1787ba2/60ff830d7a7cce48e1787ba2_Images/60ff830d7a7cce48e1787ba2_Image_30.jpeg,did not like,3.602308302,,,,,,,,,,,,,,
,,,,,,,space,0.5372,NAN,,NAN,,0,25,25,25,1,26,Alex,Acc,Participant_Images/60ff830d7a7cce48e1787ba2/60ff830d7a7cce48e1787ba2_Images/60ff830d7a7cce48e1787ba2_Image_10.jpeg,liked,4.106391878,,,,,,,,,,,,,,
,,,,,,,space,0.7075,NAN,,NAN,,0,26,26,26,1,27,Alex,Acc,Participant_Images/60ff830d7a7cce48e1787ba2/60ff830d7a7cce48e1787ba2_Images/60ff830d7a7cce48e1787ba2_Image_8.jpeg,did not like,3.799433026,,,,,,,,,,,,,,
,,,,,,,space,0.5906,NAN,,NAN,,0,27,27,27,1,28,Alex,Acc,Participant_Images/60ff830d7a7cce48e1787ba2/60ff830d7a7cce48e1787ba2_Images/60ff830d7a7cce48e1787ba2_Image_5.jpeg,liked,5.246980764,,,,,,,,,,,,,,
,,,,,,,space,0.4945,NAN,,NAN,,0,28,28,28,1,29,Alex,Acc,Participant_Images/60ff830d7a7cce48e1787ba2/60ff830d7a7cce48e1787ba2_Images/60ff830d7a7cce48e1787ba2_Image_13.jpeg,liked,3.30081769,,,,,,,,,,,,,,
,,,,,,,,,,,,,,,,,,,,,,,,s,1,space,0.4597,0,0,0,0,1,1.3838,h,0.4483,,
,,,,,,,,,3,,5,,0,29,29,29,1,30,Alex,Acc,Participant_Images/60ff830d7a7cce48e1787ba2/60ff830d7a7cce48e1787ba2_Images/60ff830d7a7cce48e1787ba2_Image_14.jpeg,liked,1.661473164,,,,,,,,,,,,,,
,,,,,space,1.3928,space,0.5658,NAN,,NAN,,0,30,30,30,1,31,Riley,Acc,Participant_Images/60ff830d7a7cce48e1787ba2/60ff830d7a7cce48e1787ba2_Images/60ff830d7a7cce48e1787ba2_Image_1.jpeg,liked,3.613205605,,,,,,,,,,,,,,
,,,,,,,space,0.506,NAN,,NAN,,0,31,31,31,1,32,Riley,Acc,Participant_Images/60ff830d7a7cce48e1787ba2/60ff830d7a7cce48e1787ba2_Images/60ff830d7a7cce48e1787ba2_Image_3.jpeg,liked,4.988446431,,,,,,,,,,,,,,
,,,,,,,space,0.734,NAN,,NAN,,0,32,32,32,1,33,Riley,Acc,Participant_Images/60ff830d7a7cce48e1787ba2/60ff830d7a7cce48e1787ba2_Images/60ff830d7a7cce48e1787ba2_Image_17.jpeg,liked,3.470791822,,,,,,,,,,,,,,
,,,,,,,space,0.5725,NAN,,NAN,,0,33,33,33,1,34,Riley,Acc,Participant_Images/60ff830d7a7cce48e1787ba2/60ff830d7a7cce48e1787ba2_Images/60ff830d7a7cce48e1787ba2_Image_19.jpeg,did not like,3.820572462,,,,,,,,,,,,,,
,,,,,,,,,,,,,,,,,,,,,,,,s,1,space,0.7679,0,0,0,0,1,1.8923,h,0.9411,,
,,,,,,,,,NAN,,NAN,,0,34,34,34,1,35,Riley,Acc,Participant_Images/60ff830d7a7cce48e1787ba2/60ff830d7a7cce48e1787ba2_Images/60ff830d7a7cce48e1787ba2_Image_14.jpeg,liked,2.455989137,,,,,,,,,,,,,,
,,,,,,,space,0.6494,NAN,,NAN,,0,35,35,35,1,36,Riley,Acc,Participant_Images/60ff830d7a7cce48e1787ba2/60ff830d7a7cce48e1787ba2_Images/60ff830d7a7cce48e1787ba2_Image_11.jpeg,liked,3.79605092,,,,,,,,,,,,,,
,,,,,,,space,0.535,NAN,,NAN,,0,36,36,36,1,37,Riley,Acc,Participant_Images/60ff830d7a7cce48e1787ba2/60ff830d7a7cce48e1787ba2_Images/60ff830d7a7cce48e1787ba2_Image_9.jpeg,liked,3.562416326,,,,,,,,,,,,,,
,,,,,,,space,0.5649,NAN,,NAN,,0,37,37,37,1,38,Riley,Acc,Participant_Images/60ff830d7a7cce48e1787ba2/60ff830d7a7cce48e1787ba2_Images/60ff830d7a7cce48e1787ba2_Image_15.jpeg,liked,2.843822497,,,,,,,,,,,,,,
,,,,,,,space,0.4025,NAN,,NAN,,0,38,38,38,1,39,Riley,Acc,Participant_Images/60ff830d7a7cce48e1787ba2/60ff830d7a7cce48e1787ba2_Images/60ff830d7a7cce48e1787ba2_Image_21.jpeg,liked,3.546495948,,,,,,,,,,,,,,
,,,,,,,,,,,,,,,,,,,,,,,,s,1,space,0.6201,0,0,0,0,1,1.1409,h,0.4497,,
,,,,,,,,,NAN,,NAN,,0,39,39,39,1,40,Riley,Acc,Participant_Images/60ff830d7a7cce48e1787ba2/60ff830d7a7cce48e1787ba2_Images/60ff830d7a7cce48e1787ba2_Image_18.jpeg,liked,1.672012706,,,,,,,,,,,,,,
,,,,,,,space,0.7924,NAN,,NAN,,0,40,40,40,1,41,Riley,Acc,Participant_Images/60ff830d7a7cce48e1787ba2/60ff830d7a7cce48e1787ba2_Images/60ff830d7a7cce48e1787ba2_Image_8.jpeg,liked,4.942172136,,,,,,,,,,,,,,
,,,,,,,space,0.5062,NAN,,NAN,,0,41,41,41,1,42,Riley,Acc,Participant_Images/60ff830d7a7cce48e1787ba2/60ff830d7a7cce48e1787ba2_Images/60ff830d7a7cce48e1787ba2_Image_12.jpeg,did not like,2.50187214,,,,,,,,,,,,,,
,,,,,,,space,0.3823,NAN,,NAN,,0,42,42,42,1,43,Riley,Acc,Participant_Images/60ff830d7a7cce48e1787ba2/60ff830d7a7cce48e1787ba2_Images/60ff830d7a7cce48e1787ba2_Image_6.jpeg,did not like,2.071164779,,,,,,,,,,,,,,
,,,,,,,space,0.589,NAN,,NAN,,0,43,43,43,1,44,Riley,Acc,Participant_Images/60ff830d7a7cce48e1787ba2/60ff830d7a7cce48e1787ba2_Images/60ff830d7a7cce48e1787ba2_Image_25.jpeg,liked,5.336503566,,,,,,,,,,,,,,
,,,,,,,,,,,,,,,,,,,,,,,,s,1,space,0.8472,0,0,0,0,1,1.9458,h,1.3176,,
,,,,,,,,,NAN,,NAN,,0,44,44,44,1,45,Riley,Acc,Participant_Images/60ff830d7a7cce48e1787ba2/60ff830d7a7cce48e1787ba2_Images/60ff830d7a7cce48e1787ba2_Image_28.jpeg,did not like,2.642157193,,,,,,,,,,,,,,
,,,,,,,space,0.9193,NAN,,NAN,,0,45,45,45,1,46,Riley,Acc,Participant_Images/60ff830d7a7cce48e1787ba2/60ff830d7a7cce48e1787ba2_Images/60ff830d7a7cce48e1787ba2_Image_16.jpeg,did not like,4.456234322,,,,,,,,,,,,,,
,,,,,,,space,0.4328,NAN,,NAN,,0,46,46,46,1,47,Riley,Acc,Participant_Images/60ff830d7a7cce48e1787ba2/60ff830d7a7cce48e1787ba2_Images/60ff830d7a7cce48e1787ba2_Image_22.jpeg,liked,4.438512181,,,,,,,,,,,,,,
,,,,,,,space,0.708,NAN,,NAN,,0,47,47,47,1,48,Riley,Acc,Participant_Images/60ff830d7a7cce48e1787ba2/60ff830d7a7cce48e1787ba2_Images/60ff830d7a7cce48e1787ba2_Image_4.jpeg,liked,2.682944783,,,,,,,,,,,,,,
,,,,,,,space,0.4494,NAN,,NAN,,0,48,48,48,1,49,Riley,Acc,Participant_Images/60ff830d7a7cce48e1787ba2/60ff830d7a7cce48e1787ba2_Images/60ff830d7a7cce48e1787ba2_Image_2.jpeg,liked,4.51984296,,,,,,,,,,,,,,
,,,,,,,,,,,,,,,,,,,,,,,,s,1,space,1.0865,0,0,0,0,1,1.5342,l,0.8001,,
,,,,,,,,,NAN,,NAN,,0,49,49,49,1,50,Riley,Acc,Participant_Images/60ff830d7a7cce48e1787ba2/60ff830d7a7cce48e1787ba2_Images/60ff830d7a7cce48e1787ba2_Image_24.jpeg,did not like,3.195382774,,,,,,,,,,,,,,
,,,,,,,space,0.8226,NAN,,NAN,,0,50,50,50,1,51,Riley,Acc,Participant_Images/60ff830d7a7cce48e1787ba2/60ff830d7a7cce48e1787ba2_Images/60ff830d7a7cce48e1787ba2_Image_27.jpeg,did not like,1.779333479,,,,,,,,,,,,,,
,,,,,,,space,0.9161,NAN,,NAN,,0,51,51,51,1,52,Riley,Acc,Participant_Images/60ff830d7a7cce48e1787ba2/60ff830d7a7cce48e1787ba2_Images/60ff830d7a7cce48e1787ba2_Image_13.jpeg,did not like,4.312468682,,,,,,,,,,,,,,
,,,,,,,space,1.1183,NAN,,NAN,,0,52,52,52,1,53,Riley,Acc,Participant_Images/60ff830d7a7cce48e1787ba2/60ff830d7a7cce48e1787ba2_Images/60ff830d7a7cce48e1787ba2_Image_26.jpeg,liked,4.940433059,,,,,,,,,,,,,,
,,,,,,,space,1.5326,NAN,,NAN,,0,53,53,53,1,54,Riley,Acc,Participant_Images/60ff830d7a7cce48e1787ba2/60ff830d7a7cce48e1787ba2_Images/60ff830d7a7cce48e1787ba2_Image_5.jpeg,liked,2.7105123,,,,,,,,,,,,,,
,,,,,,,,,,,,,,,,,,,,,,,,c,0,space,1.5567,0,0,0,0,1,2.2176,,,,
,,,,,,,,,NAN,,NAN,,0,54,54,54,1,55,Riley,Acc,Participant_Images/60ff830d7a7cce48e1787ba2/60ff830d7a7cce48e1787ba2_Images/60ff830d7a7cce48e1787ba2_Image_30.jpeg,liked,3.602308302,,,,,,,,,,,,,,
,,,,,,,space,0.917,NAN,,NAN,,0,55,55,55,1,56,Riley,Acc,Participant_Images/60ff830d7a7cce48e1787ba2/60ff830d7a7cce48e1787ba2_Images/60ff830d7a7cce48e1787ba2_Image_29.jpeg,liked,4.106391878,,,,,,,,,,,,,,
,,,,,,,space,0.3354,NAN,,NAN,,0,56,56,56,1,57,Riley,Acc,Participant_Images/60ff830d7a7cce48e1787ba2/60ff830d7a7cce48e1787ba2_Images/60ff830d7a7cce48e1787ba2_Image_20.jpeg,liked,3.799433026,,,,,,,,,,,,,,
,,,,,,,space,1.0041,NAN,,NAN,,0,57,57,57,1,58,Riley,Acc,Participant_Images/60ff830d7a7cce48e1787ba2/60ff830d7a7cce48e1787ba2_Images/60ff830d7a7cce48e1787ba2_Image_23.jpeg,liked,5.246980764,,,,,,,,,,,,,,
,,,,,,,space,1.4206,NAN,,NAN,,0,58,58,58,1,59,Riley,Acc,Participant_Images/60ff830d7a7cce48e1787ba2/60ff830d7a7cce48e1787ba2_Images/60ff830d7a7cce48e1787ba2_Image_7.jpeg,did not like,3.30081769,,,,,,,,,,,,,,
,,,,,,,,,,,,,,,,,,,,,,,,c,0,space,2.1071,0,0,0,0,1,1.4337,,,,
,,,,,,,,,3,,5,,0,59,59,59,1,60,Riley,Acc,Participant_Images/60ff830d7a7cce48e1787ba2/60ff830d7a7cce48e1787ba2_Images/60ff830d7a7cce48e1787ba2_Image_10.jpeg,liked,1.661473164,,,,,,,,,,,,,,
,,,,,space,2.7435,space,0.9212,NAN,,NAN,,0,60,60,60,1,61,Taylor,Neutral,Participant_Images/60ff830d7a7cce48e1787ba2/60ff830d7a7cce48e1787ba2_Images/60ff830d7a7cce48e1787ba2_Image_13.jpeg,liked,3.613205605,,,,,,,,,,,,,,
,,,,,,,space,0.5365,NAN,,NAN,,0,61,61,61,1,62,Taylor,Neutral,Participant_Images/60ff830d7a7cce48e1787ba2/60ff830d7a7cce48e1787ba2_Images/60ff830d7a7cce48e1787ba2_Image_23.jpeg,did not like,4.988446431,,,,,,,,,,,,,,
,,,,,,,space,0.7995,NAN,,NAN,,0,62,62,62,1,63,Taylor,Neutral,Participant_Images/60ff830d7a7cce48e1787ba2/60ff830d7a7cce48e1787ba2_Images/60ff830d7a7cce48e1787ba2_Image_5.jpeg,liked,3.470791822,,,,,,,,,,,,,,
,,,,,,,space,1.3999,NAN,,NAN,,0,63,63,63,1,64,Taylor,Neutral,Participant_Images/60ff830d7a7cce48e1787ba2/60ff830d7a7cce48e1787ba2_Images/60ff830d7a7cce48e1787ba2_Image_21.jpeg,did not like,3.820572462,,,,,,,,,,,,,,
,,,,,,,,,,,,,,,,,,,,,,,,s,1,space,0.9932,0,0,0,0,1,2.1017,h,0.3958,,
,,,,,,,,,NAN,,NAN,,0,64,64,64,1,65,Taylor,Neutral,Participant_Images/60ff830d7a7cce48e1787ba2/60ff830d7a7cce48e1787ba2_Images/60ff830d7a7cce48e1787ba2_Image_30.jpeg,did not like,2.455989137,,,,,,,,,,,,,,
,,,,,,,space,1.6047,NAN,,NAN,,0,65,65,65,1,66,Taylor,Neutral,Participant_Images/60ff830d7a7cce48e1787ba2/60ff830d7a7cce48e1787ba2_Images/60ff830d7a7cce48e1787ba2_Image_19.jpeg,liked,3.79605092,,,,,,,,,,,,,,
,,,,,,,space,1.4865,NAN,,NAN,,0,66,66,66,1,67,Taylor,Neutral,Participant_Images/60ff830d7a7cce48e1787ba2/60ff830d7a7cce48e1787ba2_Images/60ff830d7a7cce48e1787ba2_Image_3.jpeg,liked,3.562416326,,,,,,,,,,,,,,
,,,,,,,space,1.3005,NAN,,NAN,,0,67,67,67,1,68,Taylor,Neutral,Participant_Images/60ff830d7a7cce48e1787ba2/60ff830d7a7cce48e1787ba2_Images/60ff830d7a7cce48e1787ba2_Image_2.jpeg,liked,2.843822497,,,,,,,,,,,,,,
,,,,,,,space,1.4192,NAN,,NAN,,0,68,68,68,1,69,Taylor,Neutral,Participant_Images/60ff830d7a7cce48e1787ba2/60ff830d7a7cce48e1787ba2_Images/60ff830d7a7cce48e1787ba2_Image_9.jpeg,liked,3.546495948,,,,,,,,,,,,,,
,,,,,,,,,,,,,,,,,,,,,,,,s,1,space,0.9868,0,0,0,0,1,1.901,h,0.5765,,
,,,,,,,,,NAN,,NAN,,0,69,69,69,1,70,Taylor,Neutral,Participant_Images/60ff830d7a7cce48e1787ba2/60ff830d7a7cce48e1787ba2_Images/60ff830d7a7cce48e1787ba2_Image_1.jpeg,did not like,1.672012706,,,,,,,,,,,,,,
,,,,,,,space,1.286,NAN,,NAN,,0,70,70,70,1,71,Taylor,Neutral,Participant_Images/60ff830d7a7cce48e1787ba2/60ff830d7a7cce48e1787ba2_Images/60ff830d7a7cce48e1787ba2_Image_16.jpeg,liked,4.942172136,,,,,,,,,,,,,,
,,,,,,,space,1.3347,NAN,,NAN,,0,71,71,71,1,72,Taylor,Neutral,Participant_Images/60ff830d7a7cce48e1787ba2/60ff830d7a7cce48e1787ba2_Images/60ff830d7a7cce48e1787ba2_Image_8.jpeg,liked,2.50187214,,,,,,,,,,,,,,
,,,,,,,space,1.339,NAN,,NAN,,0,72,72,72,1,73,Taylor,Neutral,Participant_Images/60ff830d7a7cce48e1787ba2/60ff830d7a7cce48e1787ba2_Images/60ff830d7a7cce48e1787ba2_Image_18.jpeg,liked,2.071164779,,,,,,,,,,,,,,
,,,,,,,space,1.1165,NAN,,NAN,,0,73,73,73,1,74,Taylor,Neutral,Participant_Images/60ff830d7a7cce48e1787ba2/60ff830d7a7cce48e1787ba2_Images/60ff830d7a7cce48e1787ba2_Image_7.jpeg,liked,5.336503566,,,,,,,,,,,,,,
,,,,,,,,,,,,,,,,,,,,,,,,s,1,space,1.4711,0,0,0,0,1,1.747,h,0.4073,,
,,,,,,,,,NAN,,NAN,,0,74,74,74,1,75,Taylor,Neutral,Participant_Images/60ff830d7a7cce48e1787ba2/60ff830d7a7cce48e1787ba2_Images/60ff830d7a7cce48e1787ba2_Image_28.jpeg,did not like,2.642157193,,,,,,,,,,,,,,
,,,,,,,space,1.0566,NAN,,NAN,,0,75,75,75,1,76,Taylor,Neutral,Participant_Images/60ff830d7a7cce48e1787ba2/60ff830d7a7cce48e1787ba2_Images/60ff830d7a7cce48e1787ba2_Image_15.jpeg,did not like,4.456234322,,,,,,,,,,,,,,
,,,,,,,space,1.548,NAN,,NAN,,0,76,76,76,1,77,Taylor,Neutral,Participant_Images/60ff830d7a7cce48e1787ba2/60ff830d7a7cce48e1787ba2_Images/60ff830d7a7cce48e1787ba2_Image_12.jpeg,liked,4.438512181,,,,,,,,,,,,,,
,,,,,,,space,2.7376,NAN,,NAN,,0,77,77,77,1,78,Taylor,Neutral,Participant_Images/60ff830d7a7cce48e1787ba2/60ff830d7a7cce48e1787ba2_Images/60ff830d7a7cce48e1787ba2_Image_14.jpeg,did not like,2.682944783,,,,,,,,,,,,,,
,,,,,,,space,2.3053,NAN,,NAN,,0,78,78,78,1,79,Taylor,Neutral,Participant_Images/60ff830d7a7cce48e1787ba2/60ff830d7a7cce48e1787ba2_Images/60ff830d7a7cce48e1787ba2_Image_11.jpeg,did not like,4.51984296,,,,,,,,,,,,,,
,,,,,,,,,,,,,,,,,,,,,,,,s,1,space,1.082,0,0,0,0,1,2.0658,h,2.3366,,
,,,,,,,,,NAN,,NAN,,0,79,79,79,1,80,Taylor,Neutral,Participant_Images/60ff830d7a7cce48e1787ba2/60ff830d7a7cce48e1787ba2_Images/60ff830d7a7cce48e1787ba2_Image_26.jpeg,liked,3.195382774,,,,,,,,,,,,,,
,,,,,,,space,0.9724,NAN,,NAN,,0,80,80,80,1,81,Taylor,Neutral,Participant_Images/60ff830d7a7cce48e1787ba2/60ff830d7a7cce48e1787ba2_Images/60ff830d7a7cce48e1787ba2_Image_24.jpeg,did not like,1.779333479,,,,,,,,,,,,,,
,,,,,,,space,0.9035,NAN,,NAN,,0,81,81,81,1,82,Taylor,Neutral,Participant_Images/60ff830d7a7cce48e1787ba2/60ff830d7a7cce48e1787ba2_Images/60ff830d7a7cce48e1787ba2_Image_4.jpeg,did not like,4.312468682,,,,,,,,,,,,,,
,,,,,,,space,0.9993,NAN,,NAN,,0,82,82,82,1,83,Taylor,Neutral,Participant_Images/60ff830d7a7cce48e1787ba2/60ff830d7a7cce48e1787ba2_Images/60ff830d7a7cce48e1787ba2_Image_25.jpeg,liked,4.940433059,,,,,,,,,,,,,,
,,,,,,,space,0.4524,NAN,,NAN,,0,83,83,83,1,84,Taylor,Neutral,Participant_Images/60ff830d7a7cce48e1787ba2/60ff830d7a7cce48e1787ba2_Images/60ff830d7a7cce48e1787ba2_Image_22.jpeg,did not like,2.7105123,,,,,,,,,,,,,,
,,,,,,,,,,,,,,,,,,,,,,,,s,1,space,1.0344,0,0,0,0,1,1.5961,h,0.4937,,
,,,,,,,,,NAN,,NAN,,0,84,84,84,1,85,Taylor,Neutral,Participant_Images/60ff830d7a7cce48e1787ba2/60ff830d7a7cce48e1787ba2_Images/60ff830d7a7cce48e1787ba2_Image_29.jpeg,liked,3.602308302,,,,,,,,,,,,,,
,,,,,,,space,1.2156,NAN,,NAN,,0,85,85,85,1,86,Taylor,Neutral,Participant_Images/60ff830d7a7cce48e1787ba2/60ff830d7a7cce48e1787ba2_Images/60ff830d7a7cce48e1787ba2_Image_17.jpeg,liked,4.106391878,,,,,,,,,,,,,,
,,,,,,,space,0.8348,NAN,,NAN,,0,86,86,86,1,87,Taylor,Neutral,Participant_Images/60ff830d7a7cce48e1787ba2/60ff830d7a7cce48e1787ba2_Images/60ff830d7a7cce48e1787ba2_Image_27.jpeg,did not like,3.799433026,,,,,,,,,,,,,,
,,,,,,,space,0.819,NAN,,NAN,,0,87,87,87,1,88,Taylor,Neutral,Participant_Images/60ff830d7a7cce48e1787ba2/60ff830d7a7cce48e1787ba2_Images/60ff830d7a7cce48e1787ba2_Image_20.jpeg,did not like,5.246980764,,,,,,,,,,,,,,
,,,,,,,space,0.927,NAN,,NAN,,0,88,88,88,1,89,Taylor,Neutral,Participant_Images/60ff830d7a7cce48e1787ba2/60ff830d7a7cce48e1787ba2_Images/60ff830d7a7cce48e1787ba2_Image_10.jpeg,did not like,3.30081769,,,,,,,,,,,,,,
,,,,,,,,,,,,,,,,,,,,,,,,s,1,space,0.6996,0,0,0,0,1,1.1945,h,0.3814,,
,,,,,,,,,3,,5,,0,89,89,89,1,90,Taylor,Neutral,Participant_Images/60ff830d7a7cce48e1787ba2/60ff830d7a7cce48e1787ba2_Images/60ff830d7a7cce48e1787ba2_Image_6.jpeg,did not like,1.661473164,,,,,,,,,,,,,,
,,,,,space,1.764,space,0.5186,NAN,,NAN,,0,90,90,90,1,91,Sam,Rej,Participant_Images/60ff830d7a7cce48e1787ba2/60ff830d7a7cce48e1787ba2_Images/60ff830d7a7cce48e1787ba2_Image_2.jpeg,did not like,3.613205605,,,,,,,,,,,,,,
,,,,,,,space,0.3697,NAN,,NAN,,0,91,91,91,1,92,Sam,Rej,Participant_Images/60ff830d7a7cce48e1787ba2/60ff830d7a7cce48e1787ba2_Images/60ff830d7a7cce48e1787ba2_Image_15.jpeg,did not like,4.988446431,,,,,,,,,,,,,,
,,,,,,,space,0.6171,NAN,,NAN,,0,92,92,92,1,93,Sam,Rej,Participant_Images/60ff830d7a7cce48e1787ba2/60ff830d7a7cce48e1787ba2_Images/60ff830d7a7cce48e1787ba2_Image_25.jpeg,liked,3.470791822,,,,,,,,,,,,,,
,,,,,,,space,0.3685,NAN,,NAN,,0,93,93,93,1,94,Sam,Rej,Participant_Images/60ff830d7a7cce48e1787ba2/60ff830d7a7cce48e1787ba2_Images/60ff830d7a7cce48e1787ba2_Image_14.jpeg,did not like,3.820572462,,,,,,,,,,,,,,
,,,,,,,,,,,,,,,,,,,,,,,,s,1,space,0.6352,0,0,0,0,1,1.3659,h,0.5481,,
,,,,,,,,,NAN,,NAN,,0,94,94,94,1,95,Sam,Rej,Participant_Images/60ff830d7a7cce48e1787ba2/60ff830d7a7cce48e1787ba2_Images/60ff830d7a7cce48e1787ba2_Image_3.jpeg,liked,2.455989137,,,,,,,,,,,,,,
,,,,,,,space,1.6715,NAN,,NAN,,0,95,95,95,1,96,Sam,Rej,Participant_Images/60ff830d7a7cce48e1787ba2/60ff830d7a7cce48e1787ba2_Images/60ff830d7a7cce48e1787ba2_Image_22.jpeg,liked,3.79605092,,,,,,,,,,,,,,
,,,,,,,space,1.2851,NAN,,NAN,,0,96,96,96,1,97,Sam,Rej,Participant_Images/60ff830d7a7cce48e1787ba2/60ff830d7a7cce48e1787ba2_Images/60ff830d7a7cce48e1787ba2_Image_19.jpeg,liked,3.562416326,,,,,,,,,,,,,,
,,,,,,,space,0.6818,NAN,,NAN,,0,97,97,97,1,98,Sam,Rej,Participant_Images/60ff830d7a7cce48e1787ba2/60ff830d7a7cce48e1787ba2_Images/60ff830d7a7cce48e1787ba2_Image_16.jpeg,did not like,2.843822497,,,,,,,,,,,,,,
,,,,,,,space,1.3176,NAN,,NAN,,0,98,98,98,1,99,Sam,Rej,Participant_Images/60ff830d7a7cce48e1787ba2/60ff830d7a7cce48e1787ba2_Images/60ff830d7a7cce48e1787ba2_Image_4.jpeg,did not like,3.546495948,,,,,,,,,,,,,,
,,,,,,,,,,,,,,,,,,,,,,,,s,1,space,0.5871,0,0,0,0,1,1.034,h,0.4493,,
,,,,,,,,,NAN,,NAN,,0,99,99,99,1,100,Sam,Rej,Participant_Images/60ff830d7a7cce48e1787ba2/60ff830d7a7cce48e1787ba2_Images/60ff830d7a7cce48e1787ba2_Image_27.jpeg,did not like,1.672012706,,,,,,,,,,,,,,
,,,,,,,space,0.6418,NAN,,NAN,,0,100,100,100,1,101,Sam,Rej,Participant_Images/60ff830d7a7cce48e1787ba2/60ff830d7a7cce48e1787ba2_Images/60ff830d7a7cce48e1787ba2_Image_8.jpeg,did not like,4.942172136,,,,,,,,,,,,,,
,,,,,,,space,0.9147,NAN,,NAN,,0,101,101,101,1,102,Sam,Rej,Participant_Images/60ff830d7a7cce48e1787ba2/60ff830d7a7cce48e1787ba2_Images/60ff830d7a7cce48e1787ba2_Image_5.jpeg,did not like,2.50187214,,,,,,,,,,,,,,
,,,,,,,space,0.9333,NAN,,NAN,,0,102,102,102,1,103,Sam,Rej,Participant_Images/60ff830d7a7cce48e1787ba2/60ff830d7a7cce48e1787ba2_Images/60ff830d7a7cce48e1787ba2_Image_11.jpeg,did not like,2.071164779,,,,,,,,,,,,,,
,,,,,,,space,0.974,NAN,,NAN,,0,103,103,103,1,104,Sam,Rej,Participant_Images/60ff830d7a7cce48e1787ba2/60ff830d7a7cce48e1787ba2_Images/60ff830d7a7cce48e1787ba2_Image_12.jpeg,did not like,5.336503566,,,,,,,,,,,,,,
,,,,,,,,,,,,,,,,,,,,,,,,s,1,space,0.8323,0,0,0,0,1,1.4464,h,0.5502,,
,,,,,,,,,NAN,,NAN,,0,104,104,104,1,105,Sam,Rej,Participant_Images/60ff830d7a7cce48e1787ba2/60ff830d7a7cce48e1787ba2_Images/60ff830d7a7cce48e1787ba2_Image_21.jpeg,did not like,2.642157193,,,,,,,,,,,,,,
,,,,,,,space,0.5515,NAN,,NAN,,0,105,105,105,1,106,Sam,Rej,Participant_Images/60ff830d7a7cce48e1787ba2/60ff830d7a7cce48e1787ba2_Images/60ff830d7a7cce48e1787ba2_Image_26.jpeg,liked,4.456234322,,,,,,,,,,,,,,
,,,,,,,space,0.781,NAN,,NAN,,0,106,106,106,1,107,Sam,Rej,Participant_Images/60ff830d7a7cce48e1787ba2/60ff830d7a7cce48e1787ba2_Images/60ff830d7a7cce48e1787ba2_Image_24.jpeg,liked,4.438512181,,,,,,,,,,,,,,
,,,,,,,space,1.2052,NAN,,NAN,,0,107,107,107,1,108,Sam,Rej,Participant_Images/60ff830d7a7cce48e1787ba2/60ff830d7a7cce48e1787ba2_Images/60ff830d7a7cce48e1787ba2_Image_9.jpeg,did not like,2.682944783,,,,,,,,,,,,,,
,,,,,,,space,1.035,NAN,,NAN,,0,108,108,108,1,109,Sam,Rej,Participant_Images/60ff830d7a7cce48e1787ba2/60ff830d7a7cce48e1787ba2_Images/60ff830d7a7cce48e1787ba2_Image_17.jpeg,did not like,4.51984296,,,,,,,,,,,,,,
,,,,,,,,,,,,,,,,,,,,,,,,s,1,space,0.6508,0,0,0,0,1,1.6826,h,0.5421,,
,,,,,,,,,NAN,,NAN,,0,109,109,109,1,110,Sam,Rej,Participant_Images/60ff830d7a7cce48e1787ba2/60ff830d7a7cce48e1787ba2_Images/60ff830d7a7cce48e1787ba2_Image_18.jpeg,liked,3.195382774,,,,,,,,,,,,,,
,,,,,,,space,0.4195,NAN,,NAN,,0,110,110,110,1,111,Sam,Rej,Participant_Images/60ff830d7a7cce48e1787ba2/60ff830d7a7cce48e1787ba2_Images/60ff830d7a7cce48e1787ba2_Image_7.jpeg,did not like,1.779333479,,,,,,,,,,,,,,
,,,,,,,space,0.9095,NAN,,NAN,,0,111,111,111,1,112,Sam,Rej,Participant_Images/60ff830d7a7cce48e1787ba2/60ff830d7a7cce48e1787ba2_Images/60ff830d7a7cce48e1787ba2_Image_13.jpeg,did not like,4.312468682,,,,,,,,,,,,,,
,,,,,,,space,0.8375,NAN,,NAN,,0,112,112,112,1,113,Sam,Rej,Participant_Images/60ff830d7a7cce48e1787ba2/60ff830d7a7cce48e1787ba2_Images/60ff830d7a7cce48e1787ba2_Image_1.jpeg,did not like,4.940433059,,,,,,,,,,,,,,
,,,,,,,space,0.8511,NAN,,NAN,,0,113,113,113,1,114,Sam,Rej,Participant_Images/60ff830d7a7cce48e1787ba2/60ff830d7a7cce48e1787ba2_Images/60ff830d7a7cce48e1787ba2_Image_20.jpeg,did not like,2.7105123,,,,,,,,,,,,,,
,,,,,,,,,,,,,,,,,,,,,,,,s,1,space,0.4694,0,0,0,0,1,1.317,h,0.4109,,
,,,,,,,,,NAN,,NAN,,0,114,114,114,1,115,Sam,Rej,Participant_Images/60ff830d7a7cce48e1787ba2/60ff830d7a7cce48e1787ba2_Images/60ff830d7a7cce48e1787ba2_Image_30.jpeg,did not like,3.602308302,,,,,,,,,,,,,,
,,,,,,,space,0.4157,NAN,,NAN,,0,115,115,115,1,116,Sam,Rej,Participant_Images/60ff830d7a7cce48e1787ba2/60ff830d7a7cce48e1787ba2_Images/60ff830d7a7cce48e1787ba2_Image_28.jpeg,liked,4.106391878,,,,,,,,,,,,,,
,,,,,,,space,1.0484,NAN,,NAN,,0,116,116,116,1,117,Sam,Rej,Participant_Images/60ff830d7a7cce48e1787ba2/60ff830d7a7cce48e1787ba2_Images/60ff830d7a7cce48e1787ba2_Image_6.jpeg,did not like,3.799433026,,,,,,,,,,,,,,
,,,,,,,space,0.4661,NAN,,NAN,,0,117,117,117,1,118,Sam,Rej,Participant_Images/60ff830d7a7cce48e1787ba2/60ff830d7a7cce48e1787ba2_Images/60ff830d7a7cce48e1787ba2_Image_23.jpeg,did not like,5.246980764,,,,,,,,,,,,,,
,,,,,,,space,0.3826,NAN,,NAN,,0,118,118,118,1,119,Sam,Rej,Participant_Images/60ff830d7a7cce48e1787ba2/60ff830d7a7cce48e1787ba2_Images/60ff830d7a7cce48e1787ba2_Image_29.jpeg,liked,3.30081769,,,,,,,,,,,,,,
,,,,,,,,,,,,,,,,,,,,,,,,s,1,space,0.4372,0,0,0,0,1,1.2391,h,0.3658,,
,,,,,,,,,3,,5,,0,119,119,119,1,120,Sam,Rej,Participant_Images/60ff830d7a7cce48e1787ba2/60ff830d7a7cce48e1787ba2_Images/60ff830d7a7cce48e1787ba2_Image_10.jpeg,did not like,1.661473164,,,,,,,,,,,,,,
,,,,,space,1.1459,space,0.3431,NAN,,NAN,,0,120,120,120,1,121,Charlie,Rej,Participant_Images/60ff830d7a7cce48e1787ba2/60ff830d7a7cce48e1787ba2_Images/60ff830d7a7cce48e1787ba2_Image_23.jpeg,did not like,3.613205605,,,,,,,,,,,,,,
,,,,,,,space,0.4662,NAN,,NAN,,0,121,121,121,1,122,Charlie,Rej,Participant_Images/60ff830d7a7cce48e1787ba2/60ff830d7a7cce48e1787ba2_Images/60ff830d7a7cce48e1787ba2_Image_13.jpeg,did not like,4.988446431,,,,,,,,,,,,,,
,,,,,,,space,0.6169,NAN,,NAN,,0,122,122,122,1,123,Charlie,Rej,Participant_Images/60ff830d7a7cce48e1787ba2/60ff830d7a7cce48e1787ba2_Images/60ff830d7a7cce48e1787ba2_Image_5.jpeg,did not like,3.470791822,,,,,,,,,,,,,,
,,,,,,,space,0.456,NAN,,NAN,,0,123,123,123,1,124,Charlie,Rej,Participant_Images/60ff830d7a7cce48e1787ba2/60ff830d7a7cce48e1787ba2_Images/60ff830d7a7cce48e1787ba2_Image_11.jpeg,did not like,3.820572462,,,,,,,,,,,,,,
,,,,,,,,,,,,,,,,,,,,,,,,s,1,space,0.4381,0,0,0,0,1,1.3349,h,0.4185,,
,,,,,,,,,NAN,,NAN,,0,124,124,124,1,125,Charlie,Rej,Participant_Images/60ff830d7a7cce48e1787ba2/60ff830d7a7cce48e1787ba2_Images/60ff830d7a7cce48e1787ba2_Image_2.jpeg,liked,2.455989137,,,,,,,,,,,,,,
,,,,,,,space,0.538,NAN,,NAN,,0,125,125,125,1,126,Charlie,Rej,Participant_Images/60ff830d7a7cce48e1787ba2/60ff830d7a7cce48e1787ba2_Images/60ff830d7a7cce48e1787ba2_Image_30.jpeg,did not like,3.79605092,,,,,,,,,,,,,,
,,,,,,,space,0.5316,NAN,,NAN,,0,126,126,126,1,127,Charlie,Rej,Participant_Images/60ff830d7a7cce48e1787ba2/60ff830d7a7cce48e1787ba2_Images/60ff830d7a7cce48e1787ba2_Image_20.jpeg,did not like,3.562416326,,,,,,,,,,,,,,
,,,,,,,space,0.3006,NAN,,NAN,,0,127,127,127,1,128,Charlie,Rej,Participant_Images/60ff830d7a7cce48e1787ba2/60ff830d7a7cce48e1787ba2_Images/60ff830d7a7cce48e1787ba2_Image_21.jpeg,liked,2.843822497,,,,,,,,,,,,,,
,,,,,,,space,0.7496,NAN,,NAN,,0,128,128,128,1,129,Charlie,Rej,Participant_Images/60ff830d7a7cce48e1787ba2/60ff830d7a7cce48e1787ba2_Images/60ff830d7a7cce48e1787ba2_Image_26.jpeg,liked,3.546495948,,,,,,,,,,,,,,
,,,,,,,,,,,,,,,,,,,,,,,,s,1,space,0.5244,0,0,0,0,1,1.365,h,0.3676,,
,,,,,,,,,NAN,,NAN,,0,129,129,129,1,130,Charlie,Rej,Participant_Images/60ff830d7a7cce48e1787ba2/60ff830d7a7cce48e1787ba2_Images/60ff830d7a7cce48e1787ba2_Image_8.jpeg,did not like,1.672012706,,,,,,,,,,,,,,
,,,,,,,space,0.4574,NAN,,NAN,,0,130,130,130,1,131,Charlie,Rej,Participant_Images/60ff830d7a7cce48e1787ba2/60ff830d7a7cce48e1787ba2_Images/60ff830d7a7cce48e1787ba2_Image_25.jpeg,did not like,4.942172136,,,,,,,,,,,,,,
,,,,,,,space,0.5241,NAN,,NAN,,0,131,131,131,1,132,Charlie,Rej,Participant_Images/60ff830d7a7cce48e1787ba2/60ff830d7a7cce48e1787ba2_Images/60ff830d7a7cce48e1787ba2_Image_29.jpeg,did not like,2.50187214,,,,,,,,,,,,,,
,,,,,,,space,0.5481,NAN,,NAN,,0,132,132,132,1,133,Charlie,Rej,Participant_Images/60ff830d7a7cce48e1787ba2/60ff830d7a7cce48e1787ba2_Images/60ff830d7a7cce48e1787ba2_Image_4.jpeg,did not like,2.071164779,,,,,,,,,,,,,,
,,,,,,,space,0.2827,NAN,,NAN,,0,133,133,133,1,134,Charlie,Rej,Participant_Images/60ff830d7a7cce48e1787ba2/60ff830d7a7cce48e1787ba2_Images/60ff830d7a7cce48e1787ba2_Image_12.jpeg,did not like,5.336503566,,,,,,,,,,,,,,
,,,,,,,,,,,,,,,,,,,,,,,,s,1,space,0.3922,0,0,0,0,1,1.262,l,0.3029,,
,,,,,,,,,NAN,,NAN,,0,134,134,134,1,135,Charlie,Rej,Participant_Images/60ff830d7a7cce48e1787ba2/60ff830d7a7cce48e1787ba2_Images/60ff830d7a7cce48e1787ba2_Image_14.jpeg,liked,2.642157193,,,,,,,,,,,,,,
,,,,,,,space,0.5551,NAN,,NAN,,0,135,135,135,1,136,Charlie,Rej,Participant_Images/60ff830d7a7cce48e1787ba2/60ff830d7a7cce48e1787ba2_Images/60ff830d7a7cce48e1787ba2_Image_9.jpeg,did not like,4.456234322,,,,,,,,,,,,,,
,,,,,,,space,0.5983,NAN,,NAN,,0,136,136,136,1,137,Charlie,Rej,Participant_Images/60ff830d7a7cce48e1787ba2/60ff830d7a7cce48e1787ba2_Images/60ff830d7a7cce48e1787ba2_Image_22.jpeg,liked,4.438512181,,,,,,,,,,,,,,
,,,,,,,space,0.5674,NAN,,NAN,,0,137,137,137,1,138,Charlie,Rej,Participant_Images/60ff830d7a7cce48e1787ba2/60ff830d7a7cce48e1787ba2_Images/60ff830d7a7cce48e1787ba2_Image_17.jpeg,did not like,2.682944783,,,,,,,,,,,,,,
,,,,,,,space,0.5011,NAN,,NAN,,0,138,138,138,1,139,Charlie,Rej,Participant_Images/60ff830d7a7cce48e1787ba2/60ff830d7a7cce48e1787ba2_Images/60ff830d7a7cce48e1787ba2_Image_19.jpeg,did not like,4.51984296,,,,,,,,,,,,,,
,,,,,,,,,,,,,,,,,,,,,,,,s,1,space,0.587,0,0,0,0,1,1.6995,h,0.3763,,
,,,,,,,,,NAN,,NAN,,0,139,139,139,1,140,Charlie,Rej,Participant_Images/60ff830d7a7cce48e1787ba2/60ff830d7a7cce48e1787ba2_Images/60ff830d7a7cce48e1787ba2_Image_7.jpeg,did not like,3.195382774,,,,,,,,,,,,,,
,,,,,,,space,0.5703,NAN,,NAN,,0,140,140,140,1,141,Charlie,Rej,Participant_Images/60ff830d7a7cce48e1787ba2/60ff830d7a7cce48e1787ba2_Images/60ff830d7a7cce48e1787ba2_Image_15.jpeg,did not like,1.779333479,,,,,,,,,,,,,,
,,,,,,,space,1.0521,NAN,,NAN,,0,141,141,141,1,142,Charlie,Rej,Participant_Images/60ff830d7a7cce48e1787ba2/60ff830d7a7cce48e1787ba2_Images/60ff830d7a7cce48e1787ba2_Image_16.jpeg,liked,4.312468682,,,,,,,,,,,,,,
,,,,,,,space,0.9683,NAN,,NAN,,0,142,142,142,1,143,Charlie,Rej,Participant_Images/60ff830d7a7cce48e1787ba2/60ff830d7a7cce48e1787ba2_Images/60ff830d7a7cce48e1787ba2_Image_18.jpeg,did not like,4.940433059,,,,,,,,,,,,,,
,,,,,,,space,2.8233,NAN,,NAN,,0,143,143,143,1,144,Charlie,Rej,Participant_Images/60ff830d7a7cce48e1787ba2/60ff830d7a7cce48e1787ba2_Images/60ff830d7a7cce48e1787ba2_Image_27.jpeg,liked,2.7105123,,,,,,,,,,,,,,
,,,,,,,,,,,,,,,,,,,,,,,,s,1,space,1.4041,0,0,0,0,1,2.4858,h,0.7216,,
,,,,,,,,,NAN,,NAN,,0,144,144,144,1,145,Charlie,Rej,Participant_Images/60ff830d7a7cce48e1787ba2/60ff830d7a7cce48e1787ba2_Images/60ff830d7a7cce48e1787ba2_Image_3.jpeg,did not like,3.602308302,,,,,,,,,,,,,,
,,,,,,,space,1.0513,NAN,,NAN,,0,145,145,145,1,146,Charlie,Rej,Participant_Images/60ff830d7a7cce48e1787ba2/60ff830d7a7cce48e1787ba2_Images/60ff830d7a7cce48e1787ba2_Image_6.jpeg,liked,4.106391878,,,,,,,,,,,,,,
,,,,,,,space,1.064,NAN,,NAN,,0,146,146,146,1,147,Charlie,Rej,Participant_Images/60ff830d7a7cce48e1787ba2/60ff830d7a7cce48e1787ba2_Images/60ff830d7a7cce48e1787ba2_Image_10.jpeg,liked,3.799433026,,,,,,,,,,,,,,
,,,,,,,space,0.9354,NAN,,NAN,,0,147,147,147,1,148,Charlie,Rej,Participant_Images/60ff830d7a7cce48e1787ba2/60ff830d7a7cce48e1787ba2_Images/60ff830d7a7cce48e1787ba2_Image_1.jpeg,did not like,5.246980764,,,,,,,,,,,,,,
,,,,,,,space,0.9704,NAN,,NAN,,0,148,148,148,1,149,Charlie,Rej,Participant_Images/60ff830d7a7cce48e1787ba2/60ff830d7a7cce48e1787ba2_Images/60ff830d7a7cce48e1787ba2_Image_24.jpeg,did not like,3.30081769,,,,,,,,,,,,,,
,,,,,,,,,,,,,,,,,,,,,,,,s,1,space,0.8209,0,0,0,0,1,1.3131,h,0.4246,,
,,,,,,,,,3,,5,,0,149,149,149,1,150,Charlie,Rej,Participant_Images/60ff830d7a7cce48e1787ba2/60ff830d7a7cce48e1787ba2_Images/60ff830d7a7cce48e1787ba2_Image_28.jpeg,did not like,1.661473164,,,,,,,,,,,,,,
,,,,,,,,,,,,,,,,,,,,,,,,,,,,,,,,,,,,space,2.5679
