PROLIFIC_ID,endwelcomescreen_keys.keys,endwelcomescreen_keys.rt,endinstructionscreen_keys.keys,endinstructionscreen_keys.rt,endpartnermatch_keys.keys,endpartnermatch_keys.rt,sharenextphoto_key.keys,sharenextphoto_key.rt,salience_rating,key_resp.keys,stress_level,stresslevel_keypress.keys,entiretaskloop.thisRepN,entiretaskloop.thisTrialN,entiretaskloop.thisN,entiretaskloop.thisIndex,entiretaskloop.ran,TrialNumber,Partner,Condition,Photos,Feedback,FeedbackWait,choice_keys.keys,playlottery,resumeafterlottery_keys.keys,resumeafterlottery_keys.rt,lotteryloop.thisRepN,lotteryloop.thisTrialN,lotteryloop.thisN,lotteryloop.thisIndex,lotteryloop.ran,choice_keys.rt,end_screen_keys.keys,end_screen_keys.rt
60ff33eea57872b7188f12e2,space,7.8247,,,,,,,,,,,,,,,,,,,,,,,,,,,,,,,,,
,,,,,,,,,,,,,,,,,,,,,,,,,,,,,,,,,,,
,,,space,10.499,,,,,,,,,,,,,,,,,,,,,,,,,,,,,,,
,,,,,space,1.6408,space,0.9857,NAN,,NAN,,0,0,0,0,1,1,Charlie,Rej,Participant_Images/60ff33eea57872b7188f12e2/60ff33eea57872b7188f12e2_Images/60ff33eea57872b7188f12e2_Image_7.jpeg,did not like,3.613205605,,,,,,,,,,,,
,,,,,,,space,0.5271,NAN,,NAN,,0,1,1,1,1,2,Charlie,Rej,Participant_Images/60ff33eea57872b7188f12e2/60ff33eea57872b7188f12e2_Images/60ff33eea57872b7188f12e2_Image_6.jpeg,did not like,4.988446431,,,,,,,,,,,,
,,,,,,,space,0.5038,NAN,,NAN,,0,2,2,2,1,3,Charlie,Rej,Participant_Images/60ff33eea57872b7188f12e2/60ff33eea57872b7188f12e2_Images/60ff33eea57872b7188f12e2_Image_19.jpeg,liked,3.470791822,,,,,,,,,,,,
,,,,,,,space,7.4979,NAN,,NAN,,0,3,3,3,1,4,Charlie,Rej,Participant_Images/60ff33eea57872b7188f12e2/60ff33eea57872b7188f12e2_Images/60ff33eea57872b7188f12e2_Image_12.jpeg,did not like,3.820572462,,,,,,,,,,,,
,,,,,,,,,,,,,,,,,,,,,,,,,999,space,5.127,0,0,0,0,1,,,
,,,,,,,,,NAN,,NAN,,0,4,4,4,1,5,Charlie,Rej,Participant_Images/60ff33eea57872b7188f12e2/60ff33eea57872b7188f12e2_Images/60ff33eea57872b7188f12e2_Image_24.jpeg,did not like,2.455989137,,,,,,,,,,,,
,,,,,,,space,0.7106,NAN,,NAN,,0,5,5,5,1,6,Charlie,Rej,Participant_Images/60ff33eea57872b7188f12e2/60ff33eea57872b7188f12e2_Images/60ff33eea57872b7188f12e2_Image_8.jpeg,did not like,3.79605092,,,,,,,,,,,,
,,,,,,,space,0.5119,NAN,,NAN,,0,6,6,6,1,7,Charlie,Rej,Participant_Images/60ff33eea57872b7188f12e2/60ff33eea57872b7188f12e2_Images/60ff33eea57872b7188f12e2_Image_13.jpeg,liked,3.562416326,,,,,,,,,,,,
,,,,,,,space,0.4244,NAN,,NAN,,0,7,7,7,1,8,Charlie,Rej,Participant_Images/60ff33eea57872b7188f12e2/60ff33eea57872b7188f12e2_Images/60ff33eea57872b7188f12e2_Image_27.jpeg,did not like,2.843822497,,,,,,,,,,,,
,,,,,,,space,0.5925,NAN,,NAN,,0,8,8,8,1,9,Charlie,Rej,Participant_Images/60ff33eea57872b7188f12e2/60ff33eea57872b7188f12e2_Images/60ff33eea57872b7188f12e2_Image_14.jpeg,liked,3.546495948,,,,,,,,,,,,
,,,,,,,,,,,,,,,,,,,,,,,,c,0,space,0.6251,0,0,0,0,1,2.6526,,
,,,,,,,,,NAN,,NAN,,0,9,9,9,1,10,Charlie,Rej,Participant_Images/60ff33eea57872b7188f12e2/60ff33eea57872b7188f12e2_Images/60ff33eea57872b7188f12e2_Image_15.jpeg,did not like,1.672012706,,,,,,,,,,,,
,,,,,,,space,0.5102,NAN,,NAN,,0,10,10,10,1,11,Charlie,Rej,Participant_Images/60ff33eea57872b7188f12e2/60ff33eea57872b7188f12e2_Images/60ff33eea57872b7188f12e2_Image_1.jpeg,did not like,4.942172136,,,,,,,,,,,,
,,,,,,,space,0.5731,NAN,,NAN,,0,11,11,11,1,12,Charlie,Rej,Participant_Images/60ff33eea57872b7188f12e2/60ff33eea57872b7188f12e2_Images/60ff33eea57872b7188f12e2_Image_11.jpeg,did not like,2.50187214,,,,,,,,,,,,
,,,,,,,space,0.4894,NAN,,NAN,,0,12,12,12,1,13,Charlie,Rej,Participant_Images/60ff33eea57872b7188f12e2/60ff33eea57872b7188f12e2_Images/60ff33eea57872b7188f12e2_Image_29.jpeg,did not like,2.071164779,,,,,,,,,,,,
,,,,,,,space,0.5866,NAN,,NAN,,0,13,13,13,1,14,Charlie,Rej,Participant_Images/60ff33eea57872b7188f12e2/60ff33eea57872b7188f12e2_Images/60ff33eea57872b7188f12e2_Image_17.jpeg,did not like,5.336503566,,,,,,,,,,,,
,,,,,,,,,,,,,,,,,,,,,,,,c,0,space,1.7982,0,0,0,0,1,1.4165,,
,,,,,,,,,NAN,,NAN,,0,14,14,14,1,15,Charlie,Rej,Participant_Images/60ff33eea57872b7188f12e2/60ff33eea57872b7188f12e2_Images/60ff33eea57872b7188f12e2_Image_26.jpeg,liked,2.642157193,,,,,,,,,,,,
,,,,,,,space,0.4799,NAN,,NAN,,0,15,15,15,1,16,Charlie,Rej,Participant_Images/60ff33eea57872b7188f12e2/60ff33eea57872b7188f12e2_Images/60ff33eea57872b7188f12e2_Image_21.jpeg,liked,4.456234322,,,,,,,,,,,,
,,,,,,,space,1.0512,NAN,,NAN,,0,16,16,16,1,17,Charlie,Rej,Participant_Images/60ff33eea57872b7188f12e2/60ff33eea57872b7188f12e2_Images/60ff33eea57872b7188f12e2_Image_3.jpeg,did not like,4.438512181,,,,,,,,,,,,
,,,,,,,space,0.4942,NAN,,NAN,,0,17,17,17,1,18,Charlie,Rej,Participant_Images/60ff33eea57872b7188f12e2/60ff33eea57872b7188f12e2_Images/60ff33eea57872b7188f12e2_Image_2.jpeg,did not like,2.682944783,,,,,,,,,,,,
,,,,,,,space,0.5326,NAN,,NAN,,0,18,18,18,1,19,Charlie,Rej,Participant_Images/60ff33eea57872b7188f12e2/60ff33eea57872b7188f12e2_Images/60ff33eea57872b7188f12e2_Image_30.jpeg,liked,4.51984296,,,,,,,,,,,,
,,,,,,,,,,,,,,,,,,,,,,,,c,0,space,0.6575,0,0,0,0,1,1.6521,,
,,,,,,,,,NAN,,NAN,,0,19,19,19,1,20,Charlie,Rej,Participant_Images/60ff33eea57872b7188f12e2/60ff33eea57872b7188f12e2_Images/60ff33eea57872b7188f12e2_Image_28.jpeg,did not like,3.195382774,,,,,,,,,,,,
,,,,,,,space,0.5027,NAN,,NAN,,0,20,20,20,1,21,Charlie,Rej,Participant_Images/60ff33eea57872b7188f12e2/60ff33eea57872b7188f12e2_Images/60ff33eea57872b7188f12e2_Image_22.jpeg,liked,1.779333479,,,,,,,,,,,,
,,,,,,,space,0.5828,NAN,,NAN,,0,21,21,21,1,22,Charlie,Rej,Participant_Images/60ff33eea57872b7188f12e2/60ff33eea57872b7188f12e2_Images/60ff33eea57872b7188f12e2_Image_9.jpeg,did not like,4.312468682,,,,,,,,,,,,
,,,,,,,space,0.4999,NAN,,NAN,,0,22,22,22,1,23,Charlie,Rej,Participant_Images/60ff33eea57872b7188f12e2/60ff33eea57872b7188f12e2_Images/60ff33eea57872b7188f12e2_Image_23.jpeg,liked,4.940433059,,,,,,,,,,,,
,,,,,,,space,0.5,NAN,,NAN,,0,23,23,23,1,24,Charlie,Rej,Participant_Images/60ff33eea57872b7188f12e2/60ff33eea57872b7188f12e2_Images/60ff33eea57872b7188f12e2_Image_16.jpeg,did not like,2.7105123,,,,,,,,,,,,
,,,,,,,,,,,,,,,,,,,,,,,,c,0,space,1.0644,0,0,0,0,1,1.0492,,
,,,,,,,,,NAN,,NAN,,0,24,24,24,1,25,Charlie,Rej,Participant_Images/60ff33eea57872b7188f12e2/60ff33eea57872b7188f12e2_Images/60ff33eea57872b7188f12e2_Image_4.jpeg,did not like,3.602308302,,,,,,,,,,,,
,,,,,,,space,0.5437,NAN,,NAN,,0,25,25,25,1,26,Charlie,Rej,Participant_Images/60ff33eea57872b7188f12e2/60ff33eea57872b7188f12e2_Images/60ff33eea57872b7188f12e2_Image_18.jpeg,did not like,4.106391878,,,,,,,,,,,,
,,,,,,,space,0.3859,NAN,,NAN,,0,26,26,26,1,27,Charlie,Rej,Participant_Images/60ff33eea57872b7188f12e2/60ff33eea57872b7188f12e2_Images/60ff33eea57872b7188f12e2_Image_20.jpeg,liked,3.799433026,,,,,,,,,,,,
,,,,,,,space,1.4832,NAN,,NAN,,0,27,27,27,1,28,Charlie,Rej,Participant_Images/60ff33eea57872b7188f12e2/60ff33eea57872b7188f12e2_Images/60ff33eea57872b7188f12e2_Image_10.jpeg,did not like,5.246980764,,,,,,,,,,,,
,,,,,,,space,0.5633,NAN,,NAN,,0,28,28,28,1,29,Charlie,Rej,Participant_Images/60ff33eea57872b7188f12e2/60ff33eea57872b7188f12e2_Images/60ff33eea57872b7188f12e2_Image_25.jpeg,did not like,3.30081769,,,,,,,,,,,,
,,,,,,,,,,,,,,,,,,,,,,,,c,0,space,0.6807,0,0,0,0,1,1.0657,,
,,,,,,,,,1,,4,,0,29,29,29,1,30,Charlie,Rej,Participant_Images/60ff33eea57872b7188f12e2/60ff33eea57872b7188f12e2_Images/60ff33eea57872b7188f12e2_Image_5.jpeg,did not like,1.661473164,,,,,,,,,,,,
,,,,,space,1.8794,space,1.0572,NAN,,NAN,,0,30,30,30,1,31,Riley,Acc,Participant_Images/60ff33eea57872b7188f12e2/60ff33eea57872b7188f12e2_Images/60ff33eea57872b7188f12e2_Image_10.jpeg,liked,3.613205605,,,,,,,,,,,,
,,,,,,,space,0.649,NAN,,NAN,,0,31,31,31,1,32,Riley,Acc,Participant_Images/60ff33eea57872b7188f12e2/60ff33eea57872b7188f12e2_Images/60ff33eea57872b7188f12e2_Image_21.jpeg,did not like,4.988446431,,,,,,,,,,,,
,,,,,,,space,0.7172,NAN,,NAN,,0,32,32,32,1,33,Riley,Acc,Participant_Images/60ff33eea57872b7188f12e2/60ff33eea57872b7188f12e2_Images/60ff33eea57872b7188f12e2_Image_23.jpeg,liked,3.470791822,,,,,,,,,,,,
,,,,,,,space,3.7959,NAN,,NAN,,0,33,33,33,1,34,Riley,Acc,Participant_Images/60ff33eea57872b7188f12e2/60ff33eea57872b7188f12e2_Images/60ff33eea57872b7188f12e2_Image_20.jpeg,liked,3.820572462,,,,,,,,,,,,
,,,,,,,,,,,,,,,,,,,,,,,,c,0,space,0.7334,0,0,0,0,1,1.2237,,
,,,,,,,,,NAN,,NAN,,0,34,34,34,1,35,Riley,Acc,Participant_Images/60ff33eea57872b7188f12e2/60ff33eea57872b7188f12e2_Images/60ff33eea57872b7188f12e2_Image_14.jpeg,liked,2.455989137,,,,,,,,,,,,
,,,,,,,space,0.548,NAN,,NAN,,0,35,35,35,1,36,Riley,Acc,Participant_Images/60ff33eea57872b7188f12e2/60ff33eea57872b7188f12e2_Images/60ff33eea57872b7188f12e2_Image_17.jpeg,liked,3.79605092,,,,,,,,,,,,
,,,,,,,space,0.652,NAN,,NAN,,0,36,36,36,1,37,Riley,Acc,Participant_Images/60ff33eea57872b7188f12e2/60ff33eea57872b7188f12e2_Images/60ff33eea57872b7188f12e2_Image_24.jpeg,liked,3.562416326,,,,,,,,,,,,
,,,,,,,space,0.5112,NAN,,NAN,,0,37,37,37,1,38,Riley,Acc,Participant_Images/60ff33eea57872b7188f12e2/60ff33eea57872b7188f12e2_Images/60ff33eea57872b7188f12e2_Image_4.jpeg,liked,2.843822497,,,,,,,,,,,,
,,,,,,,space,0.5158,NAN,,NAN,,0,38,38,38,1,39,Riley,Acc,Participant_Images/60ff33eea57872b7188f12e2/60ff33eea57872b7188f12e2_Images/60ff33eea57872b7188f12e2_Image_25.jpeg,did not like,3.546495948,,,,,,,,,,,,
,,,,,,,,,,,,,,,,,,,,,,,,c,0,space,0.4188,0,0,0,0,1,1.1221,,
,,,,,,,,,NAN,,NAN,,0,39,39,39,1,40,Riley,Acc,Participant_Images/60ff33eea57872b7188f12e2/60ff33eea57872b7188f12e2_Images/60ff33eea57872b7188f12e2_Image_18.jpeg,liked,1.672012706,,,,,,,,,,,,
,,,,,,,space,0.5378,NAN,,NAN,,0,40,40,40,1,41,Riley,Acc,Participant_Images/60ff33eea57872b7188f12e2/60ff33eea57872b7188f12e2_Images/60ff33eea57872b7188f12e2_Image_30.jpeg,liked,4.942172136,,,,,,,,,,,,
,,,,,,,space,0.6604,NAN,,NAN,,0,41,41,41,1,42,Riley,Acc,Participant_Images/60ff33eea57872b7188f12e2/60ff33eea57872b7188f12e2_Images/60ff33eea57872b7188f12e2_Image_16.jpeg,liked,2.50187214,,,,,,,,,,,,
,,,,,,,space,1.0187,NAN,,NAN,,0,42,42,42,1,43,Riley,Acc,Participant_Images/60ff33eea57872b7188f12e2/60ff33eea57872b7188f12e2_Images/60ff33eea57872b7188f12e2_Image_26.jpeg,did not like,2.071164779,,,,,,,,,,,,
,,,,,,,space,0.5103,NAN,,NAN,,0,43,43,43,1,44,Riley,Acc,Participant_Images/60ff33eea57872b7188f12e2/60ff33eea57872b7188f12e2_Images/60ff33eea57872b7188f12e2_Image_12.jpeg,liked,5.336503566,,,,,,,,,,,,
,,,,,,,,,,,,,,,,,,,,,,,,c,0,space,0.4734,0,0,0,0,1,1.0575,,
,,,,,,,,,NAN,,NAN,,0,44,44,44,1,45,Riley,Acc,Participant_Images/60ff33eea57872b7188f12e2/60ff33eea57872b7188f12e2_Images/60ff33eea57872b7188f12e2_Image_29.jpeg,liked,2.642157193,,,,,,,,,,,,
,,,,,,,space,0.5608,NAN,,NAN,,0,45,45,45,1,46,Riley,Acc,Participant_Images/60ff33eea57872b7188f12e2/60ff33eea57872b7188f12e2_Images/60ff33eea57872b7188f12e2_Image_13.jpeg,liked,4.456234322,,,,,,,,,,,,
,,,,,,,space,0.6103,NAN,,NAN,,0,46,46,46,1,47,Riley,Acc,Participant_Images/60ff33eea57872b7188f12e2/60ff33eea57872b7188f12e2_Images/60ff33eea57872b7188f12e2_Image_15.jpeg,liked,4.438512181,,,,,,,,,,,,
,,,,,,,space,0.5192,NAN,,NAN,,0,47,47,47,1,48,Riley,Acc,Participant_Images/60ff33eea57872b7188f12e2/60ff33eea57872b7188f12e2_Images/60ff33eea57872b7188f12e2_Image_11.jpeg,liked,2.682944783,,,,,,,,,,,,
,,,,,,,space,0.8839,NAN,,NAN,,0,48,48,48,1,49,Riley,Acc,Participant_Images/60ff33eea57872b7188f12e2/60ff33eea57872b7188f12e2_Images/60ff33eea57872b7188f12e2_Image_27.jpeg,did not like,4.51984296,,,,,,,,,,,,
,,,,,,,,,,,,,,,,,,,,,,,,c,0,space,3.5664,0,0,0,0,1,1.1038,,
,,,,,,,,,NAN,,NAN,,0,49,49,49,1,50,Riley,Acc,Participant_Images/60ff33eea57872b7188f12e2/60ff33eea57872b7188f12e2_Images/60ff33eea57872b7188f12e2_Image_7.jpeg,did not like,3.195382774,,,,,,,,,,,,
,,,,,,,space,2.0195,NAN,,NAN,,0,50,50,50,1,51,Riley,Acc,Participant_Images/60ff33eea57872b7188f12e2/60ff33eea57872b7188f12e2_Images/60ff33eea57872b7188f12e2_Image_5.jpeg,did not like,1.779333479,,,,,,,,,,,,
,,,,,,,space,1.0104,NAN,,NAN,,0,51,51,51,1,52,Riley,Acc,Participant_Images/60ff33eea57872b7188f12e2/60ff33eea57872b7188f12e2_Images/60ff33eea57872b7188f12e2_Image_9.jpeg,liked,4.312468682,,,,,,,,,,,,
,,,,,,,space,1.3519,NAN,,NAN,,0,52,52,52,1,53,Riley,Acc,Participant_Images/60ff33eea57872b7188f12e2/60ff33eea57872b7188f12e2_Images/60ff33eea57872b7188f12e2_Image_1.jpeg,liked,4.940433059,,,,,,,,,,,,
,,,,,,,space,1.4007,NAN,,NAN,,0,53,53,53,1,54,Riley,Acc,Participant_Images/60ff33eea57872b7188f12e2/60ff33eea57872b7188f12e2_Images/60ff33eea57872b7188f12e2_Image_19.jpeg,liked,2.7105123,,,,,,,,,,,,
,,,,,,,,,,,,,,,,,,,,,,,,c,0,space,1.4888,0,0,0,0,1,1.5057,,
,,,,,,,,,NAN,,NAN,,0,54,54,54,1,55,Riley,Acc,Participant_Images/60ff33eea57872b7188f12e2/60ff33eea57872b7188f12e2_Images/60ff33eea57872b7188f12e2_Image_8.jpeg,liked,3.602308302,,,,,,,,,,,,
,,,,,,,space,1.3224,NAN,,NAN,,0,55,55,55,1,56,Riley,Acc,Participant_Images/60ff33eea57872b7188f12e2/60ff33eea57872b7188f12e2_Images/60ff33eea57872b7188f12e2_Image_6.jpeg,did not like,4.106391878,,,,,,,,,,,,
,,,,,,,space,1.4369,NAN,,NAN,,0,56,56,56,1,57,Riley,Acc,Participant_Images/60ff33eea57872b7188f12e2/60ff33eea57872b7188f12e2_Images/60ff33eea57872b7188f12e2_Image_2.jpeg,liked,3.799433026,,,,,,,,,,,,
,,,,,,,space,1.4774,NAN,,NAN,,0,57,57,57,1,58,Riley,Acc,Participant_Images/60ff33eea57872b7188f12e2/60ff33eea57872b7188f12e2_Images/60ff33eea57872b7188f12e2_Image_22.jpeg,liked,5.246980764,,,,,,,,,,,,
,,,,,,,space,0.5603,NAN,,NAN,,0,58,58,58,1,59,Riley,Acc,Participant_Images/60ff33eea57872b7188f12e2/60ff33eea57872b7188f12e2_Images/60ff33eea57872b7188f12e2_Image_28.jpeg,did not like,3.30081769,,,,,,,,,,,,
,,,,,,,,,,,,,,,,,,,,,,,,c,0,space,0.4728,0,0,0,0,1,1.0257,,
,,,,,,,,,3,,5,,0,59,59,59,1,60,Riley,Acc,Participant_Images/60ff33eea57872b7188f12e2/60ff33eea57872b7188f12e2_Images/60ff33eea57872b7188f12e2_Image_3.jpeg,did not like,1.661473164,,,,,,,,,,,,
,,,,,space,1.8349,space,0.3666,NAN,,NAN,,0,60,60,60,1,61,Sam,Rej,Participant_Images/60ff33eea57872b7188f12e2/60ff33eea57872b7188f12e2_Images/60ff33eea57872b7188f12e2_Image_14.jpeg,did not like,3.613205605,,,,,,,,,,,,
,,,,,,,space,0.5234,NAN,,NAN,,0,61,61,61,1,62,Sam,Rej,Participant_Images/60ff33eea57872b7188f12e2/60ff33eea57872b7188f12e2_Images/60ff33eea57872b7188f12e2_Image_4.jpeg,did not like,4.988446431,,,,,,,,,,,,
,,,,,,,space,0.5559,NAN,,NAN,,0,62,62,62,1,63,Sam,Rej,Participant_Images/60ff33eea57872b7188f12e2/60ff33eea57872b7188f12e2_Images/60ff33eea57872b7188f12e2_Image_19.jpeg,did not like,3.470791822,,,,,,,,,,,,
,,,,,,,space,0.9938,NAN,,NAN,,0,63,63,63,1,64,Sam,Rej,Participant_Images/60ff33eea57872b7188f12e2/60ff33eea57872b7188f12e2_Images/60ff33eea57872b7188f12e2_Image_15.jpeg,did not like,3.820572462,,,,,,,,,,,,
,,,,,,,,,,,,,,,,,,,,,,,,c,0,space,0.9164,0,0,0,0,1,1.0496,,
,,,,,,,,,NAN,,NAN,,0,64,64,64,1,65,Sam,Rej,Participant_Images/60ff33eea57872b7188f12e2/60ff33eea57872b7188f12e2_Images/60ff33eea57872b7188f12e2_Image_28.jpeg,liked,2.455989137,,,,,,,,,,,,
,,,,,,,space,0.8508,NAN,,NAN,,0,65,65,65,1,66,Sam,Rej,Participant_Images/60ff33eea57872b7188f12e2/60ff33eea57872b7188f12e2_Images/60ff33eea57872b7188f12e2_Image_6.jpeg,did not like,3.79605092,,,,,,,,,,,,
,,,,,,,space,1.1357,NAN,,NAN,,0,66,66,66,1,67,Sam,Rej,Participant_Images/60ff33eea57872b7188f12e2/60ff33eea57872b7188f12e2_Images/60ff33eea57872b7188f12e2_Image_16.jpeg,liked,3.562416326,,,,,,,,,,,,
,,,,,,,space,0.4924,NAN,,NAN,,0,67,67,67,1,68,Sam,Rej,Participant_Images/60ff33eea57872b7188f12e2/60ff33eea57872b7188f12e2_Images/60ff33eea57872b7188f12e2_Image_27.jpeg,did not like,2.843822497,,,,,,,,,,,,
,,,,,,,space,3.0544,NAN,,NAN,,0,68,68,68,1,69,Sam,Rej,Participant_Images/60ff33eea57872b7188f12e2/60ff33eea57872b7188f12e2_Images/60ff33eea57872b7188f12e2_Image_20.jpeg,did not like,3.546495948,,,,,,,,,,,,
,,,,,,,,,,,,,,,,,,,,,,,,c,0,space,0.5477,0,0,0,0,1,1.3032,,
,,,,,,,,,NAN,,NAN,,0,69,69,69,1,70,Sam,Rej,Participant_Images/60ff33eea57872b7188f12e2/60ff33eea57872b7188f12e2_Images/60ff33eea57872b7188f12e2_Image_17.jpeg,did not like,1.672012706,,,,,,,,,,,,
,,,,,,,space,0.5128,NAN,,NAN,,0,70,70,70,1,71,Sam,Rej,Participant_Images/60ff33eea57872b7188f12e2/60ff33eea57872b7188f12e2_Images/60ff33eea57872b7188f12e2_Image_25.jpeg,did not like,4.942172136,,,,,,,,,,,,
,,,,,,,space,0.5657,NAN,,NAN,,0,71,71,71,1,72,Sam,Rej,Participant_Images/60ff33eea57872b7188f12e2/60ff33eea57872b7188f12e2_Images/60ff33eea57872b7188f12e2_Image_12.jpeg,did not like,2.50187214,,,,,,,,,,,,
,,,,,,,space,0.6515,NAN,,NAN,,0,72,72,72,1,73,Sam,Rej,Participant_Images/60ff33eea57872b7188f12e2/60ff33eea57872b7188f12e2_Images/60ff33eea57872b7188f12e2_Image_1.jpeg,liked,2.071164779,,,,,,,,,,,,
,,,,,,,space,1.5413,NAN,,NAN,,0,73,73,73,1,74,Sam,Rej,Participant_Images/60ff33eea57872b7188f12e2/60ff33eea57872b7188f12e2_Images/60ff33eea57872b7188f12e2_Image_22.jpeg,did not like,5.336503566,,,,,,,,,,,,
,,,,,,,,,,,,,,,,,,,,,,,,c,0,space,0.713,0,0,0,0,1,1.043,,
,,,,,,,,,NAN,,NAN,,0,74,74,74,1,75,Sam,Rej,Participant_Images/60ff33eea57872b7188f12e2/60ff33eea57872b7188f12e2_Images/60ff33eea57872b7188f12e2_Image_10.jpeg,liked,2.642157193,,,,,,,,,,,,
,,,,,,,space,0.6398,NAN,,NAN,,0,75,75,75,1,76,Sam,Rej,Participant_Images/60ff33eea57872b7188f12e2/60ff33eea57872b7188f12e2_Images/60ff33eea57872b7188f12e2_Image_9.jpeg,liked,4.456234322,,,,,,,,,,,,
,,,,,,,space,0.8539,NAN,,NAN,,0,76,76,76,1,77,Sam,Rej,Participant_Images/60ff33eea57872b7188f12e2/60ff33eea57872b7188f12e2_Images/60ff33eea57872b7188f12e2_Image_13.jpeg,did not like,4.438512181,,,,,,,,,,,,
,,,,,,,space,0.5479,NAN,,NAN,,0,77,77,77,1,78,Sam,Rej,Participant_Images/60ff33eea57872b7188f12e2/60ff33eea57872b7188f12e2_Images/60ff33eea57872b7188f12e2_Image_24.jpeg,did not like,2.682944783,,,,,,,,,,,,
,,,,,,,space,0.5502,NAN,,NAN,,0,78,78,78,1,79,Sam,Rej,Participant_Images/60ff33eea57872b7188f12e2/60ff33eea57872b7188f12e2_Images/60ff33eea57872b7188f12e2_Image_29.jpeg,did not like,4.51984296,,,,,,,,,,,,
,,,,,,,,,,,,,,,,,,,,,,,,c,0,space,0.6536,0,0,0,0,1,1.1456,,
,,,,,,,,,NAN,,NAN,,0,79,79,79,1,80,Sam,Rej,Participant_Images/60ff33eea57872b7188f12e2/60ff33eea57872b7188f12e2_Images/60ff33eea57872b7188f12e2_Image_3.jpeg,liked,3.195382774,,,,,,,,,,,,
,,,,,,,space,0.5927,NAN,,NAN,,0,80,80,80,1,81,Sam,Rej,Participant_Images/60ff33eea57872b7188f12e2/60ff33eea57872b7188f12e2_Images/60ff33eea57872b7188f12e2_Image_2.jpeg,did not like,1.779333479,,,,,,,,,,,,
,,,,,,,space,1.0756,NAN,,NAN,,0,81,81,81,1,82,Sam,Rej,Participant_Images/60ff33eea57872b7188f12e2/60ff33eea57872b7188f12e2_Images/60ff33eea57872b7188f12e2_Image_26.jpeg,did not like,4.312468682,,,,,,,,,,,,
,,,,,,,space,0.5302,NAN,,NAN,,0,82,82,82,1,83,Sam,Rej,Participant_Images/60ff33eea57872b7188f12e2/60ff33eea57872b7188f12e2_Images/60ff33eea57872b7188f12e2_Image_8.jpeg,did not like,4.940433059,,,,,,,,,,,,
,,,,,,,space,0.5551,NAN,,NAN,,0,83,83,83,1,84,Sam,Rej,Participant_Images/60ff33eea57872b7188f12e2/60ff33eea57872b7188f12e2_Images/60ff33eea57872b7188f12e2_Image_23.jpeg,liked,2.7105123,,,,,,,,,,,,
,,,,,,,,,,,,,,,,,,,,,,,,c,0,space,0.6636,0,0,0,0,1,1.2309,,
,,,,,,,,,NAN,,NAN,,0,84,84,84,1,85,Sam,Rej,Participant_Images/60ff33eea57872b7188f12e2/60ff33eea57872b7188f12e2_Images/60ff33eea57872b7188f12e2_Image_7.jpeg,liked,3.602308302,,,,,,,,,,,,
,,,,,,,space,1.5536,NAN,,NAN,,0,85,85,85,1,86,Sam,Rej,Participant_Images/60ff33eea57872b7188f12e2/60ff33eea57872b7188f12e2_Images/60ff33eea57872b7188f12e2_Image_18.jpeg,did not like,4.106391878,,,,,,,,,,,,
,,,,,,,space,0.7463,NAN,,NAN,,0,86,86,86,1,87,Sam,Rej,Participant_Images/60ff33eea57872b7188f12e2/60ff33eea57872b7188f12e2_Images/60ff33eea57872b7188f12e2_Image_21.jpeg,did not like,3.799433026,,,,,,,,,,,,
,,,,,,,space,0.5813,NAN,,NAN,,0,87,87,87,1,88,Sam,Rej,Participant_Images/60ff33eea57872b7188f12e2/60ff33eea57872b7188f12e2_Images/60ff33eea57872b7188f12e2_Image_11.jpeg,did not like,5.246980764,,,,,,,,,,,,
,,,,,,,space,0.9983,NAN,,NAN,,0,88,88,88,1,89,Sam,Rej,Participant_Images/60ff33eea57872b7188f12e2/60ff33eea57872b7188f12e2_Images/60ff33eea57872b7188f12e2_Image_5.jpeg,did not like,3.30081769,,,,,,,,,,,,
,,,,,,,,,,,,,,,,,,,,,,,,c,0,space,0.617,0,0,0,0,1,1.2231,,
,,,,,,,,,3,,5,,0,89,89,89,1,90,Sam,Rej,Participant_Images/60ff33eea57872b7188f12e2/60ff33eea57872b7188f12e2_Images/60ff33eea57872b7188f12e2_Image_30.jpeg,liked,1.661473164,,,,,,,,,,,,
,,,,,space,1.3491,space,0.7301,NAN,,NAN,,0,90,90,90,1,91,Taylor,Acc,Participant_Images/60ff33eea57872b7188f12e2/60ff33eea57872b7188f12e2_Images/60ff33eea57872b7188f12e2_Image_3.jpeg,did not like,3.613205605,,,,,,,,,,,,
,,,,,,,space,0.4268,NAN,,NAN,,0,91,91,91,1,92,Taylor,Acc,Participant_Images/60ff33eea57872b7188f12e2/60ff33eea57872b7188f12e2_Images/60ff33eea57872b7188f12e2_Image_14.jpeg,liked,4.988446431,,,,,,,,,,,,
,,,,,,,space,0.9777,NAN,,NAN,,0,92,92,92,1,93,Taylor,Acc,Participant_Images/60ff33eea57872b7188f12e2/60ff33eea57872b7188f12e2_Images/60ff33eea57872b7188f12e2_Image_19.jpeg,liked,3.470791822,,,,,,,,,,,,
,,,,,,,space,0.4772,NAN,,NAN,,0,93,93,93,1,94,Taylor,Acc,Participant_Images/60ff33eea57872b7188f12e2/60ff33eea57872b7188f12e2_Images/60ff33eea57872b7188f12e2_Image_12.jpeg,liked,3.820572462,,,,,,,,,,,,
,,,,,,,,,,,,,,,,,,,,,,,,c,0,space,0.6302,0,0,0,0,1,1.1188,,
,,,,,,,,,NAN,,NAN,,0,94,94,94,1,95,Taylor,Acc,Participant_Images/60ff33eea57872b7188f12e2/60ff33eea57872b7188f12e2_Images/60ff33eea57872b7188f12e2_Image_29.jpeg,liked,2.455989137,,,,,,,,,,,,
,,,,,,,space,1.595,NAN,,NAN,,0,95,95,95,1,96,Taylor,Acc,Participant_Images/60ff33eea57872b7188f12e2/60ff33eea57872b7188f12e2_Images/60ff33eea57872b7188f12e2_Image_8.jpeg,liked,3.79605092,,,,,,,,,,,,
,,,,,,,space,0.567,NAN,,NAN,,0,96,96,96,1,97,Taylor,Acc,Participant_Images/60ff33eea57872b7188f12e2/60ff33eea57872b7188f12e2_Images/60ff33eea57872b7188f12e2_Image_1.jpeg,did not like,3.562416326,,,,,,,,,,,,
,,,,,,,space,0.9454,NAN,,NAN,,0,97,97,97,1,98,Taylor,Acc,Participant_Images/60ff33eea57872b7188f12e2/60ff33eea57872b7188f12e2_Images/60ff33eea57872b7188f12e2_Image_20.jpeg,liked,2.843822497,,,,,,,,,,,,
,,,,,,,space,0.6278,NAN,,NAN,,0,98,98,98,1,99,Taylor,Acc,Participant_Images/60ff33eea57872b7188f12e2/60ff33eea57872b7188f12e2_Images/60ff33eea57872b7188f12e2_Image_23.jpeg,did not like,3.546495948,,,,,,,,,,,,
,,,,,,,,,,,,,,,,,,,,,,,,c,0,space,0.8684,0,0,0,0,1,1.2553,,
,,,,,,,,,NAN,,NAN,,0,99,99,99,1,100,Taylor,Acc,Participant_Images/60ff33eea57872b7188f12e2/60ff33eea57872b7188f12e2_Images/60ff33eea57872b7188f12e2_Image_13.jpeg,liked,1.672012706,,,,,,,,,,,,
,,,,,,,space,0.6268,NAN,,NAN,,0,100,100,100,1,101,Taylor,Acc,Participant_Images/60ff33eea57872b7188f12e2/60ff33eea57872b7188f12e2_Images/60ff33eea57872b7188f12e2_Image_15.jpeg,liked,4.942172136,,,,,,,,,,,,
,,,,,,,space,0.434,NAN,,NAN,,0,101,101,101,1,102,Taylor,Acc,Participant_Images/60ff33eea57872b7188f12e2/60ff33eea57872b7188f12e2_Images/60ff33eea57872b7188f12e2_Image_26.jpeg,liked,2.50187214,,,,,,,,,,,,
,,,,,,,space,1.3837,NAN,,NAN,,0,102,102,102,1,103,Taylor,Acc,Participant_Images/60ff33eea57872b7188f12e2/60ff33eea57872b7188f12e2_Images/60ff33eea57872b7188f12e2_Image_16.jpeg,liked,2.071164779,,,,,,,,,,,,
,,,,,,,space,0.4506,NAN,,NAN,,0,103,103,103,1,104,Taylor,Acc,Participant_Images/60ff33eea57872b7188f12e2/60ff33eea57872b7188f12e2_Images/60ff33eea57872b7188f12e2_Image_6.jpeg,liked,5.336503566,,,,,,,,,,,,
,,,,,,,,,,,,,,,,,,,,,,,,c,0,space,0.6889,0,0,0,0,1,1.1516,,
,,,,,,,,,NAN,,NAN,,0,104,104,104,1,105,Taylor,Acc,Participant_Images/60ff33eea57872b7188f12e2/60ff33eea57872b7188f12e2_Images/60ff33eea57872b7188f12e2_Image_9.jpeg,did not like,2.642157193,,,,,,,,,,,,
,,,,,,,space,1.4668,NAN,,NAN,,0,105,105,105,1,106,Taylor,Acc,Participant_Images/60ff33eea57872b7188f12e2/60ff33eea57872b7188f12e2_Images/60ff33eea57872b7188f12e2_Image_24.jpeg,liked,4.456234322,,,,,,,,,,,,
,,,,,,,space,0.7095,NAN,,NAN,,0,106,106,106,1,107,Taylor,Acc,Participant_Images/60ff33eea57872b7188f12e2/60ff33eea57872b7188f12e2_Images/60ff33eea57872b7188f12e2_Image_22.jpeg,did not like,4.438512181,,,,,,,,,,,,
,,,,,,,space,1.5828,NAN,,NAN,,0,107,107,107,1,108,Taylor,Acc,Participant_Images/60ff33eea57872b7188f12e2/60ff33eea57872b7188f12e2_Images/60ff33eea57872b7188f12e2_Image_17.jpeg,liked,2.682944783,,,,,,,,,,,,
,,,,,,,space,0.894,NAN,,NAN,,0,108,108,108,1,109,Taylor,Acc,Participant_Images/60ff33eea57872b7188f12e2/60ff33eea57872b7188f12e2_Images/60ff33eea57872b7188f12e2_Image_27.jpeg,liked,4.51984296,,,,,,,,,,,,
,,,,,,,,,,,,,,,,,,,,,,,,c,0,space,0.9541,0,0,0,0,1,1.7292,,
,,,,,,,,,NAN,,NAN,,0,109,109,109,1,110,Taylor,Acc,Participant_Images/60ff33eea57872b7188f12e2/60ff33eea57872b7188f12e2_Images/60ff33eea57872b7188f12e2_Image_10.jpeg,liked,3.195382774,,,,,,,,,,,,
,,,,,,,space,2.1479,NAN,,NAN,,0,110,110,110,1,111,Taylor,Acc,Participant_Images/60ff33eea57872b7188f12e2/60ff33eea57872b7188f12e2_Images/60ff33eea57872b7188f12e2_Image_30.jpeg,did not like,1.779333479,,,,,,,,,,,,
,,,,,,,space,1.0671,NAN,,NAN,,0,111,111,111,1,112,Taylor,Acc,Participant_Images/60ff33eea57872b7188f12e2/60ff33eea57872b7188f12e2_Images/60ff33eea57872b7188f12e2_Image_25.jpeg,liked,4.312468682,,,,,,,,,,,,
,,,,,,,space,0.8919,NAN,,NAN,,0,112,112,112,1,113,Taylor,Acc,Participant_Images/60ff33eea57872b7188f12e2/60ff33eea57872b7188f12e2_Images/60ff33eea57872b7188f12e2_Image_5.jpeg,did not like,4.940433059,,,,,,,,,,,,
,,,,,,,space,1.2938,NAN,,NAN,,0,113,113,113,1,114,Taylor,Acc,Participant_Images/60ff33eea57872b7188f12e2/60ff33eea57872b7188f12e2_Images/60ff33eea57872b7188f12e2_Image_4.jpeg,liked,2.7105123,,,,,,,,,,,,
,,,,,,,,,,,,,,,,,,,,,,,,c,0,space,0.9817,0,0,0,0,1,1.2171,,
,,,,,,,,,NAN,,NAN,,0,114,114,114,1,115,Taylor,Acc,Participant_Images/60ff33eea57872b7188f12e2/60ff33eea57872b7188f12e2_Images/60ff33eea57872b7188f12e2_Image_18.jpeg,liked,3.602308302,,,,,,,,,,,,
,,,,,,,space,1.2174,NAN,,NAN,,0,115,115,115,1,116,Taylor,Acc,Participant_Images/60ff33eea57872b7188f12e2/60ff33eea57872b7188f12e2_Images/60ff33eea57872b7188f12e2_Image_21.jpeg,did not like,4.106391878,,,,,,,,,,,,
,,,,,,,space,0.6857,NAN,,NAN,,0,116,116,116,1,117,Taylor,Acc,Participant_Images/60ff33eea57872b7188f12e2/60ff33eea57872b7188f12e2_Images/60ff33eea57872b7188f12e2_Image_11.jpeg,liked,3.799433026,,,,,,,,,,,,
,,,,,,,space,0.5804,NAN,,NAN,,0,117,117,117,1,118,Taylor,Acc,Participant_Images/60ff33eea57872b7188f12e2/60ff33eea57872b7188f12e2_Images/60ff33eea57872b7188f12e2_Image_7.jpeg,did not like,5.246980764,,,,,,,,,,,,
,,,,,,,space,0.5453,NAN,,NAN,,0,118,118,118,1,119,Taylor,Acc,Participant_Images/60ff33eea57872b7188f12e2/60ff33eea57872b7188f12e2_Images/60ff33eea57872b7188f12e2_Image_2.jpeg,liked,3.30081769,,,,,,,,,,,,
,,,,,,,,,,,,,,,,,,,,,,,,c,0,space,0.9504,0,0,0,0,1,1.2754,,
,,,,,,,,,4,,5,,0,119,119,119,1,120,Taylor,Acc,Participant_Images/60ff33eea57872b7188f12e2/60ff33eea57872b7188f12e2_Images/60ff33eea57872b7188f12e2_Image_28.jpeg,liked,1.661473164,,,,,,,,,,,,
,,,,,space,2.3772,space,0.834,NAN,,NAN,,0,120,120,120,1,121,Alex,Neutral,Participant_Images/60ff33eea57872b7188f12e2/60ff33eea57872b7188f12e2_Images/60ff33eea57872b7188f12e2_Image_12.jpeg,did not like,3.613205605,,,,,,,,,,,,
,,,,,,,space,0.6173,NAN,,NAN,,0,121,121,121,1,122,Alex,Neutral,Participant_Images/60ff33eea57872b7188f12e2/60ff33eea57872b7188f12e2_Images/60ff33eea57872b7188f12e2_Image_24.jpeg,liked,4.988446431,,,,,,,,,,,,
,,,,,,,space,0.7401,NAN,,NAN,,0,122,122,122,1,123,Alex,Neutral,Participant_Images/60ff33eea57872b7188f12e2/60ff33eea57872b7188f12e2_Images/60ff33eea57872b7188f12e2_Image_2.jpeg,did not like,3.470791822,,,,,,,,,,,,
,,,,,,,space,2.4343,NAN,,NAN,,0,123,123,123,1,124,Alex,Neutral,Participant_Images/60ff33eea57872b7188f12e2/60ff33eea57872b7188f12e2_Images/60ff33eea57872b7188f12e2_Image_1.jpeg,did not like,3.820572462,,,,,,,,,,,,
,,,,,,,,,,,,,,,,,,,,,,,,c,0,space,1.2896,0,0,0,0,1,1.156,,
,,,,,,,,,NAN,,NAN,,0,124,124,124,1,125,Alex,Neutral,Participant_Images/60ff33eea57872b7188f12e2/60ff33eea57872b7188f12e2_Images/60ff33eea57872b7188f12e2_Image_25.jpeg,did not like,2.455989137,,,,,,,,,,,,
,,,,,,,space,0.7751,NAN,,NAN,,0,125,125,125,1,126,Alex,Neutral,Participant_Images/60ff33eea57872b7188f12e2/60ff33eea57872b7188f12e2_Images/60ff33eea57872b7188f12e2_Image_15.jpeg,liked,3.79605092,,,,,,,,,,,,
,,,,,,,space,1.2292,NAN,,NAN,,0,126,126,126,1,127,Alex,Neutral,Participant_Images/60ff33eea57872b7188f12e2/60ff33eea57872b7188f12e2_Images/60ff33eea57872b7188f12e2_Image_19.jpeg,liked,3.562416326,,,,,,,,,,,,
,,,,,,,space,0.9946,NAN,,NAN,,0,127,127,127,1,128,Alex,Neutral,Participant_Images/60ff33eea57872b7188f12e2/60ff33eea57872b7188f12e2_Images/60ff33eea57872b7188f12e2_Image_6.jpeg,did not like,2.843822497,,,,,,,,,,,,
,,,,,,,space,3.2095,NAN,,NAN,,0,128,128,128,1,129,Alex,Neutral,Participant_Images/60ff33eea57872b7188f12e2/60ff33eea57872b7188f12e2_Images/60ff33eea57872b7188f12e2_Image_16.jpeg,did not like,3.546495948,,,,,,,,,,,,
,,,,,,,,,,,,,,,,,,,,,,,,c,0,space,1.1066,0,0,0,0,1,2.0837,,
,,,,,,,,,NAN,,NAN,,0,129,129,129,1,130,Alex,Neutral,Participant_Images/60ff33eea57872b7188f12e2/60ff33eea57872b7188f12e2_Images/60ff33eea57872b7188f12e2_Image_18.jpeg,liked,1.672012706,,,,,,,,,,,,
,,,,,,,space,1.0173,NAN,,NAN,,0,130,130,130,1,131,Alex,Neutral,Participant_Images/60ff33eea57872b7188f12e2/60ff33eea57872b7188f12e2_Images/60ff33eea57872b7188f12e2_Image_14.jpeg,liked,4.942172136,,,,,,,,,,,,
,,,,,,,space,0.834,NAN,,NAN,,0,131,131,131,1,132,Alex,Neutral,Participant_Images/60ff33eea57872b7188f12e2/60ff33eea57872b7188f12e2_Images/60ff33eea57872b7188f12e2_Image_21.jpeg,liked,2.50187214,,,,,,,,,,,,
,,,,,,,space,0.5179,NAN,,NAN,,0,132,132,132,1,133,Alex,Neutral,Participant_Images/60ff33eea57872b7188f12e2/60ff33eea57872b7188f12e2_Images/60ff33eea57872b7188f12e2_Image_8.jpeg,liked,2.071164779,,,,,,,,,,,,
,,,,,,,space,0.4843,NAN,,NAN,,0,133,133,133,1,134,Alex,Neutral,Participant_Images/60ff33eea57872b7188f12e2/60ff33eea57872b7188f12e2_Images/60ff33eea57872b7188f12e2_Image_5.jpeg,did not like,5.336503566,,,,,,,,,,,,
,,,,,,,,,,,,,,,,,,,,,,,,c,0,space,0.5663,0,0,0,0,1,0.7537,,
,,,,,,,,,NAN,,NAN,,0,134,134,134,1,135,Alex,Neutral,Participant_Images/60ff33eea57872b7188f12e2/60ff33eea57872b7188f12e2_Images/60ff33eea57872b7188f12e2_Image_11.jpeg,liked,2.642157193,,,,,,,,,,,,
,,,,,,,space,1.43,NAN,,NAN,,0,135,135,135,1,136,Alex,Neutral,Participant_Images/60ff33eea57872b7188f12e2/60ff33eea57872b7188f12e2_Images/60ff33eea57872b7188f12e2_Image_26.jpeg,liked,4.456234322,,,,,,,,,,,,
,,,,,,,space,0.6106,NAN,,NAN,,0,136,136,136,1,137,Alex,Neutral,Participant_Images/60ff33eea57872b7188f12e2/60ff33eea57872b7188f12e2_Images/60ff33eea57872b7188f12e2_Image_7.jpeg,liked,4.438512181,,,,,,,,,,,,
,,,,,,,space,1.9464,NAN,,NAN,,0,137,137,137,1,138,Alex,Neutral,Participant_Images/60ff33eea57872b7188f12e2/60ff33eea57872b7188f12e2_Images/60ff33eea57872b7188f12e2_Image_22.jpeg,did not like,2.682944783,,,,,,,,,,,,
,,,,,,,space,0.9778,NAN,,NAN,,0,138,138,138,1,139,Alex,Neutral,Participant_Images/60ff33eea57872b7188f12e2/60ff33eea57872b7188f12e2_Images/60ff33eea57872b7188f12e2_Image_27.jpeg,liked,4.51984296,,,,,,,,,,,,
,,,,,,,,,,,,,,,,,,,,,,,,c,0,space,0.8049,0,0,0,0,1,0.6669,,
,,,,,,,,,NAN,,NAN,,0,139,139,139,1,140,Alex,Neutral,Participant_Images/60ff33eea57872b7188f12e2/60ff33eea57872b7188f12e2_Images/60ff33eea57872b7188f12e2_Image_23.jpeg,did not like,3.195382774,,,,,,,,,,,,
,,,,,,,space,1.1335,NAN,,NAN,,0,140,140,140,1,141,Alex,Neutral,Participant_Images/60ff33eea57872b7188f12e2/60ff33eea57872b7188f12e2_Images/60ff33eea57872b7188f12e2_Image_20.jpeg,liked,1.779333479,,,,,,,,,,,,
,,,,,,,space,0.767,NAN,,NAN,,0,141,141,141,1,142,Alex,Neutral,Participant_Images/60ff33eea57872b7188f12e2/60ff33eea57872b7188f12e2_Images/60ff33eea57872b7188f12e2_Image_10.jpeg,liked,4.312468682,,,,,,,,,,,,
,,,,,,,space,0.9852,NAN,,NAN,,0,142,142,142,1,143,Alex,Neutral,Participant_Images/60ff33eea57872b7188f12e2/60ff33eea57872b7188f12e2_Images/60ff33eea57872b7188f12e2_Image_30.jpeg,did not like,4.940433059,,,,,,,,,,,,
,,,,,,,space,0.7478,NAN,,NAN,,0,143,143,143,1,144,Alex,Neutral,Participant_Images/60ff33eea57872b7188f12e2/60ff33eea57872b7188f12e2_Images/60ff33eea57872b7188f12e2_Image_3.jpeg,liked,2.7105123,,,,,,,,,,,,
,,,,,,,,,,,,,,,,,,,,,,,,c,0,space,0.5803,0,0,0,0,1,0.817,,
,,,,,,,,,NAN,,NAN,,0,144,144,144,1,145,Alex,Neutral,Participant_Images/60ff33eea57872b7188f12e2/60ff33eea57872b7188f12e2_Images/60ff33eea57872b7188f12e2_Image_9.jpeg,did not like,3.602308302,,,,,,,,,,,,
,,,,,,,space,0.584,NAN,,NAN,,0,145,145,145,1,146,Alex,Neutral,Participant_Images/60ff33eea57872b7188f12e2/60ff33eea57872b7188f12e2_Images/60ff33eea57872b7188f12e2_Image_13.jpeg,did not like,4.106391878,,,,,,,,,,,,
,,,,,,,space,0.9959,NAN,,NAN,,0,146,146,146,1,147,Alex,Neutral,Participant_Images/60ff33eea57872b7188f12e2/60ff33eea57872b7188f12e2_Images/60ff33eea57872b7188f12e2_Image_29.jpeg,did not like,3.799433026,,,,,,,,,,,,
,,,,,,,space,2.1139,NAN,,NAN,,0,147,147,147,1,148,Alex,Neutral,Participant_Images/60ff33eea57872b7188f12e2/60ff33eea57872b7188f12e2_Images/60ff33eea57872b7188f12e2_Image_4.jpeg,did not like,5.246980764,,,,,,,,,,,,
,,,,,,,space,0.4447,NAN,,NAN,,0,148,148,148,1,149,Alex,Neutral,Participant_Images/60ff33eea57872b7188f12e2/60ff33eea57872b7188f12e2_Images/60ff33eea57872b7188f12e2_Image_28.jpeg,did not like,3.30081769,,,,,,,,,,,,
,,,,,,,,,,,,,,,,,,,,,,,,c,0,space,2.1833,0,0,0,0,1,0.6999,,
,,,,,,,,,3,,5,,0,149,149,149,1,150,Alex,Neutral,Participant_Images/60ff33eea57872b7188f12e2/60ff33eea57872b7188f12e2_Images/60ff33eea57872b7188f12e2_Image_17.jpeg,liked,1.661473164,,,,,,,,,,,,
,,,,,,,,,,,,,,,,,,,,,,,,,,,,,,,,,,space,13.272
