endwelcomescreen_keys.keys,endwelcomescreen_keys.rt,endinstructionscreen_keys.keys,endinstructionscreen_keys.rt,endpartnermatch_keys.keys,endpartnermatch_keys.rt,sharenextphoto_key.keys,sharenextphoto_key.rt,salience_rating,key_resp.keys,stress_level,stresslevel_keypress.keys,entiretaskloop.thisRepN,entiretaskloop.thisTrialN,entiretaskloop.thisN,entiretaskloop.thisIndex,entiretaskloop.ran,TrialNumber,Partner,Condition,Photos,Feedback,FeedbackWait,choice_keys.keys,playlottery,resumeafterlottery_keys.keys,resumeafterlottery_keys.rt,lotteryloop.thisRepN,lotteryloop.thisTrialN,lotteryloop.thisN,lotteryloop.thisIndex,lotteryloop.ran,choice_keys.rt,lotteryguess_keys.keys,lotteryguess_keys.rt,end_screen_keys.keys,end_screen_keys.rt
space,24.3927,,,,,,,,,,,,,,,,,,,,,,,,,,,,,,,,,,,
,,,,,,,,,,,,,,,,,,,,,,,,,,,,,,,,,,,,
,,space,25.3999,,,,,,,,,,,,,,,,,,,,,,,,,,,,,,,,,
,,,,space,3.8209,space,1.9838,NAN,,NAN,,0,0,0,0,1,1,Charlie,Rej,Participant_Images/610024bfd6e1038ba3b1601d/610024bfd6e1038ba3b1601d_Images/610024bfd6e1038ba3b1601d_Image_28.jpeg,did not like,3.613205605,,,,,,,,,,,,,,
,,,,,,space,1.4943,NAN,,NAN,,0,1,1,1,1,2,Charlie,Rej,Participant_Images/610024bfd6e1038ba3b1601d/610024bfd6e1038ba3b1601d_Images/610024bfd6e1038ba3b1601d_Image_5.jpeg,liked,4.988446431,,,,,,,,,,,,,,
,,,,,,space,1.011,NAN,,NAN,,0,2,2,2,1,3,Charlie,Rej,Participant_Images/610024bfd6e1038ba3b1601d/610024bfd6e1038ba3b1601d_Images/610024bfd6e1038ba3b1601d_Image_21.jpeg,did not like,3.470791822,,,,,,,,,,,,,,
,,,,,,space,1.2066,NAN,,NAN,,0,3,3,3,1,4,Charlie,Rej,Participant_Images/610024bfd6e1038ba3b1601d/610024bfd6e1038ba3b1601d_Images/610024bfd6e1038ba3b1601d_Image_17.jpeg,did not like,3.820572462,,,,,,,,,,,,,,
,,,,,,,,,,,,,,,,,,,,,,,,999,space,6.2377,0,0,0,0,1,,,,,
,,,,,,,,NAN,,NAN,,0,4,4,4,1,5,Charlie,Rej,Participant_Images/610024bfd6e1038ba3b1601d/610024bfd6e1038ba3b1601d_Images/610024bfd6e1038ba3b1601d_Image_27.jpeg,did not like,2.455989137,,,,,,,,,,,,,,
,,,,,,space,1.2341,NAN,,NAN,,0,5,5,5,1,6,Charlie,Rej,Participant_Images/610024bfd6e1038ba3b1601d/610024bfd6e1038ba3b1601d_Images/610024bfd6e1038ba3b1601d_Image_29.jpeg,liked,3.79605092,,,,,,,,,,,,,,
,,,,,,space,0.5835,NAN,,NAN,,0,6,6,6,1,7,Charlie,Rej,Participant_Images/610024bfd6e1038ba3b1601d/610024bfd6e1038ba3b1601d_Images/610024bfd6e1038ba3b1601d_Image_9.jpeg,did not like,3.562416326,,,,,,,,,,,,,,
,,,,,,space,0.567,NAN,,NAN,,0,7,7,7,1,8,Charlie,Rej,Participant_Images/610024bfd6e1038ba3b1601d/610024bfd6e1038ba3b1601d_Images/610024bfd6e1038ba3b1601d_Image_1.jpeg,did not like,2.843822497,,,,,,,,,,,,,,
,,,,,,space,0.5837,NAN,,NAN,,0,8,8,8,1,9,Charlie,Rej,Participant_Images/610024bfd6e1038ba3b1601d/610024bfd6e1038ba3b1601d_Images/610024bfd6e1038ba3b1601d_Image_25.jpeg,did not like,3.546495948,,,,,,,,,,,,,,
,,,,,,,,,,,,,,,,,,,,,,,s,1,space,1.6634,0,0,0,0,1,3.1423,,,,
,,,,,,,,NAN,,NAN,,0,9,9,9,1,10,Charlie,Rej,Participant_Images/610024bfd6e1038ba3b1601d/610024bfd6e1038ba3b1601d_Images/610024bfd6e1038ba3b1601d_Image_4.jpeg,did not like,1.672012706,,,,,,,,,,,,,,
,,,,,,space,1.2838,NAN,,NAN,,0,10,10,10,1,11,Charlie,Rej,Participant_Images/610024bfd6e1038ba3b1601d/610024bfd6e1038ba3b1601d_Images/610024bfd6e1038ba3b1601d_Image_16.jpeg,did not like,4.942172136,,,,,,,,,,,,,,
,,,,,,space,1.0671,NAN,,NAN,,0,11,11,11,1,12,Charlie,Rej,Participant_Images/610024bfd6e1038ba3b1601d/610024bfd6e1038ba3b1601d_Images/610024bfd6e1038ba3b1601d_Image_2.jpeg,liked,2.50187214,,,,,,,,,,,,,,
,,,,,,space,0.5239,NAN,,NAN,,0,12,12,12,1,13,Charlie,Rej,Participant_Images/610024bfd6e1038ba3b1601d/610024bfd6e1038ba3b1601d_Images/610024bfd6e1038ba3b1601d_Image_30.jpeg,did not like,2.071164779,,,,,,,,,,,,,,
,,,,,,space,0.8162,NAN,,NAN,,0,13,13,13,1,14,Charlie,Rej,Participant_Images/610024bfd6e1038ba3b1601d/610024bfd6e1038ba3b1601d_Images/610024bfd6e1038ba3b1601d_Image_3.jpeg,did not like,5.336503566,,,,,,,,,,,,,,
,,,,,,,,,,,,,,,,,,,,,,,s,1,space,1.3713,0,0,0,0,1,1.3531,h,2.0445,,
,,,,,,,,NAN,,NAN,,0,14,14,14,1,15,Charlie,Rej,Participant_Images/610024bfd6e1038ba3b1601d/610024bfd6e1038ba3b1601d_Images/610024bfd6e1038ba3b1601d_Image_13.jpeg,did not like,2.642157193,,,,,,,,,,,,,,
,,,,,,space,0.9341,NAN,,NAN,,0,15,15,15,1,16,Charlie,Rej,Participant_Images/610024bfd6e1038ba3b1601d/610024bfd6e1038ba3b1601d_Images/610024bfd6e1038ba3b1601d_Image_19.jpeg,liked,4.456234322,,,,,,,,,,,,,,
,,,,,,space,1.8001,NAN,,NAN,,0,16,16,16,1,17,Charlie,Rej,Participant_Images/610024bfd6e1038ba3b1601d/610024bfd6e1038ba3b1601d_Images/610024bfd6e1038ba3b1601d_Image_14.jpeg,liked,4.438512181,,,,,,,,,,,,,,
,,,,,,space,0.7176,NAN,,NAN,,0,17,17,17,1,18,Charlie,Rej,Participant_Images/610024bfd6e1038ba3b1601d/610024bfd6e1038ba3b1601d_Images/610024bfd6e1038ba3b1601d_Image_12.jpeg,did not like,2.682944783,,,,,,,,,,,,,,
,,,,,,space,0.6227,NAN,,NAN,,0,18,18,18,1,19,Charlie,Rej,Participant_Images/610024bfd6e1038ba3b1601d/610024bfd6e1038ba3b1601d_Images/610024bfd6e1038ba3b1601d_Image_8.jpeg,did not like,4.51984296,,,,,,,,,,,,,,
,,,,,,,,,,,,,,,,,,,,,,,s,1,space,0.9051,0,0,0,0,1,1.0303,l,0.9849,,
,,,,,,,,NAN,,NAN,,0,19,19,19,1,20,Charlie,Rej,Participant_Images/610024bfd6e1038ba3b1601d/610024bfd6e1038ba3b1601d_Images/610024bfd6e1038ba3b1601d_Image_15.jpeg,liked,3.195382774,,,,,,,,,,,,,,
,,,,,,space,0.8999,NAN,,NAN,,0,20,20,20,1,21,Charlie,Rej,Participant_Images/610024bfd6e1038ba3b1601d/610024bfd6e1038ba3b1601d_Images/610024bfd6e1038ba3b1601d_Image_23.jpeg,did not like,1.779333479,,,,,,,,,,,,,,
,,,,,,space,0.852,NAN,,NAN,,0,21,21,21,1,22,Charlie,Rej,Participant_Images/610024bfd6e1038ba3b1601d/610024bfd6e1038ba3b1601d_Images/610024bfd6e1038ba3b1601d_Image_20.jpeg,liked,4.312468682,,,,,,,,,,,,,,
,,,,,,space,0.892,NAN,,NAN,,0,22,22,22,1,23,Charlie,Rej,Participant_Images/610024bfd6e1038ba3b1601d/610024bfd6e1038ba3b1601d_Images/610024bfd6e1038ba3b1601d_Image_24.jpeg,liked,4.940433059,,,,,,,,,,,,,,
,,,,,,space,4.115,NAN,,NAN,,0,23,23,23,1,24,Charlie,Rej,Participant_Images/610024bfd6e1038ba3b1601d/610024bfd6e1038ba3b1601d_Images/610024bfd6e1038ba3b1601d_Image_6.jpeg,did not like,2.7105123,,,,,,,,,,,,,,
,,,,,,,,,,,,,,,,,,,,,,,s,1,space,1.2831,0,0,0,0,1,0.9437,l,0.322,,
,,,,,,,,NAN,,NAN,,0,24,24,24,1,25,Charlie,Rej,Participant_Images/610024bfd6e1038ba3b1601d/610024bfd6e1038ba3b1601d_Images/610024bfd6e1038ba3b1601d_Image_26.jpeg,did not like,3.602308302,,,,,,,,,,,,,,
,,,,,,space,1.4508,NAN,,NAN,,0,25,25,25,1,26,Charlie,Rej,Participant_Images/610024bfd6e1038ba3b1601d/610024bfd6e1038ba3b1601d_Images/610024bfd6e1038ba3b1601d_Image_11.jpeg,did not like,4.106391878,,,,,,,,,,,,,,
,,,,,,space,0.7239,NAN,,NAN,,0,26,26,26,1,27,Charlie,Rej,Participant_Images/610024bfd6e1038ba3b1601d/610024bfd6e1038ba3b1601d_Images/610024bfd6e1038ba3b1601d_Image_18.jpeg,did not like,3.799433026,,,,,,,,,,,,,,
,,,,,,space,1.452,NAN,,NAN,,0,27,27,27,1,28,Charlie,Rej,Participant_Images/610024bfd6e1038ba3b1601d/610024bfd6e1038ba3b1601d_Images/610024bfd6e1038ba3b1601d_Image_7.jpeg,did not like,5.246980764,,,,,,,,,,,,,,
,,,,,,space,0.7514,NAN,,NAN,,0,28,28,28,1,29,Charlie,Rej,Participant_Images/610024bfd6e1038ba3b1601d/610024bfd6e1038ba3b1601d_Images/610024bfd6e1038ba3b1601d_Image_22.jpeg,liked,3.30081769,,,,,,,,,,,,,,
,,,,,,,,,,,,,,,,,,,,,,,s,1,space,3.3886,0,0,0,0,1,1.8975,h,1.7523,,
,,,,,,,,1,,2,,0,29,29,29,1,30,Charlie,Rej,Participant_Images/610024bfd6e1038ba3b1601d/610024bfd6e1038ba3b1601d_Images/610024bfd6e1038ba3b1601d_Image_10.jpeg,did not like,1.661473164,,,,,,,,,,,,,,
,,,,space,5.8076,space,1.5373,NAN,,NAN,,0,30,30,30,1,31,Alex,Acc,Participant_Images/610024bfd6e1038ba3b1601d/610024bfd6e1038ba3b1601d_Images/610024bfd6e1038ba3b1601d_Image_19.jpeg,liked,3.613205605,,,,,,,,,,,,,,
,,,,,,space,1.3882,NAN,,NAN,,0,31,31,31,1,32,Alex,Acc,Participant_Images/610024bfd6e1038ba3b1601d/610024bfd6e1038ba3b1601d_Images/610024bfd6e1038ba3b1601d_Image_29.jpeg,did not like,4.988446431,,,,,,,,,,,,,,
,,,,,,space,0.7828,NAN,,NAN,,0,32,32,32,1,33,Alex,Acc,Participant_Images/610024bfd6e1038ba3b1601d/610024bfd6e1038ba3b1601d_Images/610024bfd6e1038ba3b1601d_Image_7.jpeg,liked,3.470791822,,,,,,,,,,,,,,
,,,,,,space,1.7838,NAN,,NAN,,0,33,33,33,1,34,Alex,Acc,Participant_Images/610024bfd6e1038ba3b1601d/610024bfd6e1038ba3b1601d_Images/610024bfd6e1038ba3b1601d_Image_2.jpeg,liked,3.820572462,,,,,,,,,,,,,,
,,,,,,,,,,,,,,,,,,,,,,,s,1,space,3.205,0,0,0,0,1,1.6781,h,0.7164,,
,,,,,,,,NAN,,NAN,,0,34,34,34,1,35,Alex,Acc,Participant_Images/610024bfd6e1038ba3b1601d/610024bfd6e1038ba3b1601d_Images/610024bfd6e1038ba3b1601d_Image_21.jpeg,liked,2.455989137,,,,,,,,,,,,,,
,,,,,,space,0.7675,NAN,,NAN,,0,35,35,35,1,36,Alex,Acc,Participant_Images/610024bfd6e1038ba3b1601d/610024bfd6e1038ba3b1601d_Images/610024bfd6e1038ba3b1601d_Image_17.jpeg,liked,3.79605092,,,,,,,,,,,,,,
,,,,,,space,0.4996,NAN,,NAN,,0,36,36,36,1,37,Alex,Acc,Participant_Images/610024bfd6e1038ba3b1601d/610024bfd6e1038ba3b1601d_Images/610024bfd6e1038ba3b1601d_Image_14.jpeg,liked,3.562416326,,,,,,,,,,,,,,
,,,,,,space,0.5866,NAN,,NAN,,0,37,37,37,1,38,Alex,Acc,Participant_Images/610024bfd6e1038ba3b1601d/610024bfd6e1038ba3b1601d_Images/610024bfd6e1038ba3b1601d_Image_5.jpeg,liked,2.843822497,,,,,,,,,,,,,,
,,,,,,space,2.2988,NAN,,NAN,,0,38,38,38,1,39,Alex,Acc,Participant_Images/610024bfd6e1038ba3b1601d/610024bfd6e1038ba3b1601d_Images/610024bfd6e1038ba3b1601d_Image_3.jpeg,did not like,3.546495948,,,,,,,,,,,,,,
,,,,,,,,,,,,,,,,,,,,,,,s,1,space,0.975,0,0,0,0,1,1.6324,h,1.3313,,
,,,,,,,,NAN,,NAN,,0,39,39,39,1,40,Alex,Acc,Participant_Images/610024bfd6e1038ba3b1601d/610024bfd6e1038ba3b1601d_Images/610024bfd6e1038ba3b1601d_Image_9.jpeg,did not like,1.672012706,,,,,,,,,,,,,,
,,,,,,space,1.1933,NAN,,NAN,,0,40,40,40,1,41,Alex,Acc,Participant_Images/610024bfd6e1038ba3b1601d/610024bfd6e1038ba3b1601d_Images/610024bfd6e1038ba3b1601d_Image_6.jpeg,liked,4.942172136,,,,,,,,,,,,,,
,,,,,,space,0.6508,NAN,,NAN,,0,41,41,41,1,42,Alex,Acc,Participant_Images/610024bfd6e1038ba3b1601d/610024bfd6e1038ba3b1601d_Images/610024bfd6e1038ba3b1601d_Image_30.jpeg,liked,2.50187214,,,,,,,,,,,,,,
,,,,,,space,0.6934,NAN,,NAN,,0,42,42,42,1,43,Alex,Acc,Participant_Images/610024bfd6e1038ba3b1601d/610024bfd6e1038ba3b1601d_Images/610024bfd6e1038ba3b1601d_Image_16.jpeg,liked,2.071164779,,,,,,,,,,,,,,
,,,,,,space,2.132,NAN,,NAN,,0,43,43,43,1,44,Alex,Acc,Participant_Images/610024bfd6e1038ba3b1601d/610024bfd6e1038ba3b1601d_Images/610024bfd6e1038ba3b1601d_Image_8.jpeg,liked,5.336503566,,,,,,,,,,,,,,
,,,,,,,,,,,,,,,,,,,,,,,s,1,space,0.7823,0,0,0,0,1,1.499,h,0.8197,,
,,,,,,,,NAN,,NAN,,0,44,44,44,1,45,Alex,Acc,Participant_Images/610024bfd6e1038ba3b1601d/610024bfd6e1038ba3b1601d_Images/610024bfd6e1038ba3b1601d_Image_12.jpeg,liked,2.642157193,,,,,,,,,,,,,,
,,,,,,space,1.5497,NAN,,NAN,,0,45,45,45,1,46,Alex,Acc,Participant_Images/610024bfd6e1038ba3b1601d/610024bfd6e1038ba3b1601d_Images/610024bfd6e1038ba3b1601d_Image_25.jpeg,liked,4.456234322,,,,,,,,,,,,,,
,,,,,,space,0.9842,NAN,,NAN,,0,46,46,46,1,47,Alex,Acc,Participant_Images/610024bfd6e1038ba3b1601d/610024bfd6e1038ba3b1601d_Images/610024bfd6e1038ba3b1601d_Image_26.jpeg,did not like,4.438512181,,,,,,,,,,,,,,
,,,,,,space,1.2124,NAN,,NAN,,0,47,47,47,1,48,Alex,Acc,Participant_Images/610024bfd6e1038ba3b1601d/610024bfd6e1038ba3b1601d_Images/610024bfd6e1038ba3b1601d_Image_28.jpeg,liked,2.682944783,,,,,,,,,,,,,,
,,,,,,space,0.9712,NAN,,NAN,,0,48,48,48,1,49,Alex,Acc,Participant_Images/610024bfd6e1038ba3b1601d/610024bfd6e1038ba3b1601d_Images/610024bfd6e1038ba3b1601d_Image_1.jpeg,did not like,4.51984296,,,,,,,,,,,,,,
,,,,,,,,,,,,,,,,,,,,,,,s,1,space,1.117,0,0,0,0,1,1.6328,h,0.6464,,
,,,,,,,,NAN,,NAN,,0,49,49,49,1,50,Alex,Acc,Participant_Images/610024bfd6e1038ba3b1601d/610024bfd6e1038ba3b1601d_Images/610024bfd6e1038ba3b1601d_Image_11.jpeg,did not like,3.195382774,,,,,,,,,,,,,,
,,,,,,space,0.5859,NAN,,NAN,,0,50,50,50,1,51,Alex,Acc,Participant_Images/610024bfd6e1038ba3b1601d/610024bfd6e1038ba3b1601d_Images/610024bfd6e1038ba3b1601d_Image_10.jpeg,liked,1.779333479,,,,,,,,,,,,,,
,,,,,,space,0.4771,NAN,,NAN,,0,51,51,51,1,52,Alex,Acc,Participant_Images/610024bfd6e1038ba3b1601d/610024bfd6e1038ba3b1601d_Images/610024bfd6e1038ba3b1601d_Image_4.jpeg,liked,4.312468682,,,,,,,,,,,,,,
,,,,,,space,0.6258,NAN,,NAN,,0,52,52,52,1,53,Alex,Acc,Participant_Images/610024bfd6e1038ba3b1601d/610024bfd6e1038ba3b1601d_Images/610024bfd6e1038ba3b1601d_Image_13.jpeg,did not like,4.940433059,,,,,,,,,,,,,,
,,,,,,space,0.5406,NAN,,NAN,,0,53,53,53,1,54,Alex,Acc,Participant_Images/610024bfd6e1038ba3b1601d/610024bfd6e1038ba3b1601d_Images/610024bfd6e1038ba3b1601d_Image_27.jpeg,liked,2.7105123,,,,,,,,,,,,,,
,,,,,,,,,,,,,,,,,,,,,,,s,1,space,5.1899,0,0,0,0,1,1.514,h,0.7966,,
,,,,,,,,NAN,,NAN,,0,54,54,54,1,55,Alex,Acc,Participant_Images/610024bfd6e1038ba3b1601d/610024bfd6e1038ba3b1601d_Images/610024bfd6e1038ba3b1601d_Image_18.jpeg,liked,3.602308302,,,,,,,,,,,,,,
,,,,,,space,1.034,NAN,,NAN,,0,55,55,55,1,56,Alex,Acc,Participant_Images/610024bfd6e1038ba3b1601d/610024bfd6e1038ba3b1601d_Images/610024bfd6e1038ba3b1601d_Image_20.jpeg,liked,4.106391878,,,,,,,,,,,,,,
,,,,,,space,0.7411,NAN,,NAN,,0,56,56,56,1,57,Alex,Acc,Participant_Images/610024bfd6e1038ba3b1601d/610024bfd6e1038ba3b1601d_Images/610024bfd6e1038ba3b1601d_Image_23.jpeg,did not like,3.799433026,,,,,,,,,,,,,,
,,,,,,space,0.5025,NAN,,NAN,,0,57,57,57,1,58,Alex,Acc,Participant_Images/610024bfd6e1038ba3b1601d/610024bfd6e1038ba3b1601d_Images/610024bfd6e1038ba3b1601d_Image_22.jpeg,liked,5.246980764,,,,,,,,,,,,,,
,,,,,,space,0.6831,NAN,,NAN,,0,58,58,58,1,59,Alex,Acc,Participant_Images/610024bfd6e1038ba3b1601d/610024bfd6e1038ba3b1601d_Images/610024bfd6e1038ba3b1601d_Image_24.jpeg,liked,3.30081769,,,,,,,,,,,,,,
,,,,,,,,,,,,,,,,,,,,,,,s,1,space,1.9165,0,0,0,0,1,1.368,h,1.0701,,
,,,,,,,,4,,2,,0,59,59,59,1,60,Alex,Acc,Participant_Images/610024bfd6e1038ba3b1601d/610024bfd6e1038ba3b1601d_Images/610024bfd6e1038ba3b1601d_Image_15.jpeg,did not like,1.661473164,,,,,,,,,,,,,,
,,,,space,5.0793,space,0.7859,NAN,,NAN,,0,60,60,60,1,61,Riley,Acc,Participant_Images/610024bfd6e1038ba3b1601d/610024bfd6e1038ba3b1601d_Images/610024bfd6e1038ba3b1601d_Image_21.jpeg,liked,3.613205605,,,,,,,,,,,,,,
,,,,,,space,0.6401,NAN,,NAN,,0,61,61,61,1,62,Riley,Acc,Participant_Images/610024bfd6e1038ba3b1601d/610024bfd6e1038ba3b1601d_Images/610024bfd6e1038ba3b1601d_Image_12.jpeg,did not like,4.988446431,,,,,,,,,,,,,,
,,,,,,space,0.4186,NAN,,NAN,,0,62,62,62,1,63,Riley,Acc,Participant_Images/610024bfd6e1038ba3b1601d/610024bfd6e1038ba3b1601d_Images/610024bfd6e1038ba3b1601d_Image_18.jpeg,did not like,3.470791822,,,,,,,,,,,,,,
,,,,,,space,0.4937,NAN,,NAN,,0,63,63,63,1,64,Riley,Acc,Participant_Images/610024bfd6e1038ba3b1601d/610024bfd6e1038ba3b1601d_Images/610024bfd6e1038ba3b1601d_Image_29.jpeg,did not like,3.820572462,,,,,,,,,,,,,,
,,,,,,,,,,,,,,,,,,,,,,,s,1,space,0.9719,0,0,0,0,1,1.4422,h,1.3829,,
,,,,,,,,NAN,,NAN,,0,64,64,64,1,65,Riley,Acc,Participant_Images/610024bfd6e1038ba3b1601d/610024bfd6e1038ba3b1601d_Images/610024bfd6e1038ba3b1601d_Image_27.jpeg,liked,2.455989137,,,,,,,,,,,,,,
,,,,,,space,1.4178,NAN,,NAN,,0,65,65,65,1,66,Riley,Acc,Participant_Images/610024bfd6e1038ba3b1601d/610024bfd6e1038ba3b1601d_Images/610024bfd6e1038ba3b1601d_Image_10.jpeg,liked,3.79605092,,,,,,,,,,,,,,
,,,,,,space,1.44,NAN,,NAN,,0,66,66,66,1,67,Riley,Acc,Participant_Images/610024bfd6e1038ba3b1601d/610024bfd6e1038ba3b1601d_Images/610024bfd6e1038ba3b1601d_Image_15.jpeg,liked,3.562416326,,,,,,,,,,,,,,
,,,,,,space,1.0311,NAN,,NAN,,0,67,67,67,1,68,Riley,Acc,Participant_Images/610024bfd6e1038ba3b1601d/610024bfd6e1038ba3b1601d_Images/610024bfd6e1038ba3b1601d_Image_1.jpeg,liked,2.843822497,,,,,,,,,,,,,,
,,,,,,space,0.7518,NAN,,NAN,,0,68,68,68,1,69,Riley,Acc,Participant_Images/610024bfd6e1038ba3b1601d/610024bfd6e1038ba3b1601d_Images/610024bfd6e1038ba3b1601d_Image_19.jpeg,liked,3.546495948,,,,,,,,,,,,,,
,,,,,,,,,,,,,,,,,,,,,,,s,1,space,2.5997,0,0,0,0,1,1.5713,h,1.4234,,
,,,,,,,,NAN,,NAN,,0,69,69,69,1,70,Riley,Acc,Participant_Images/610024bfd6e1038ba3b1601d/610024bfd6e1038ba3b1601d_Images/610024bfd6e1038ba3b1601d_Image_20.jpeg,liked,1.672012706,,,,,,,,,,,,,,
,,,,,,space,1.4086,NAN,,NAN,,0,70,70,70,1,71,Riley,Acc,Participant_Images/610024bfd6e1038ba3b1601d/610024bfd6e1038ba3b1601d_Images/610024bfd6e1038ba3b1601d_Image_2.jpeg,did not like,4.942172136,,,,,,,,,,,,,,
,,,,,,space,0.65,NAN,,NAN,,0,71,71,71,1,72,Riley,Acc,Participant_Images/610024bfd6e1038ba3b1601d/610024bfd6e1038ba3b1601d_Images/610024bfd6e1038ba3b1601d_Image_14.jpeg,liked,2.50187214,,,,,,,,,,,,,,
,,,,,,space,0.8239,NAN,,NAN,,0,72,72,72,1,73,Riley,Acc,Participant_Images/610024bfd6e1038ba3b1601d/610024bfd6e1038ba3b1601d_Images/610024bfd6e1038ba3b1601d_Image_6.jpeg,did not like,2.071164779,,,,,,,,,,,,,,
,,,,,,space,1.0777,NAN,,NAN,,0,73,73,73,1,74,Riley,Acc,Participant_Images/610024bfd6e1038ba3b1601d/610024bfd6e1038ba3b1601d_Images/610024bfd6e1038ba3b1601d_Image_13.jpeg,did not like,5.336503566,,,,,,,,,,,,,,
,,,,,,,,,,,,,,,,,,,,,,,s,1,space,0.7838,0,0,0,0,1,1.3337,h,1.4344,,
,,,,,,,,NAN,,NAN,,0,74,74,74,1,75,Riley,Acc,Participant_Images/610024bfd6e1038ba3b1601d/610024bfd6e1038ba3b1601d_Images/610024bfd6e1038ba3b1601d_Image_22.jpeg,liked,2.642157193,,,,,,,,,,,,,,
,,,,,,space,0.6631,NAN,,NAN,,0,75,75,75,1,76,Riley,Acc,Participant_Images/610024bfd6e1038ba3b1601d/610024bfd6e1038ba3b1601d_Images/610024bfd6e1038ba3b1601d_Image_4.jpeg,liked,4.456234322,,,,,,,,,,,,,,
,,,,,,space,0.5174,NAN,,NAN,,0,76,76,76,1,77,Riley,Acc,Participant_Images/610024bfd6e1038ba3b1601d/610024bfd6e1038ba3b1601d_Images/610024bfd6e1038ba3b1601d_Image_24.jpeg,liked,4.438512181,,,,,,,,,,,,,,
,,,,,,space,0.3669,NAN,,NAN,,0,77,77,77,1,78,Riley,Acc,Participant_Images/610024bfd6e1038ba3b1601d/610024bfd6e1038ba3b1601d_Images/610024bfd6e1038ba3b1601d_Image_3.jpeg,liked,2.682944783,,,,,,,,,,,,,,
,,,,,,space,1.5745,NAN,,NAN,,0,78,78,78,1,79,Riley,Acc,Participant_Images/610024bfd6e1038ba3b1601d/610024bfd6e1038ba3b1601d_Images/610024bfd6e1038ba3b1601d_Image_7.jpeg,liked,4.51984296,,,,,,,,,,,,,,
,,,,,,,,,,,,,,,,,,,,,,,s,1,space,2.083,0,0,0,0,1,1.7165,h,1.4971,,
,,,,,,,,NAN,,NAN,,0,79,79,79,1,80,Riley,Acc,Participant_Images/610024bfd6e1038ba3b1601d/610024bfd6e1038ba3b1601d_Images/610024bfd6e1038ba3b1601d_Image_23.jpeg,liked,3.195382774,,,,,,,,,,,,,,
,,,,,,space,24.5958,NAN,,NAN,,0,80,80,80,1,81,Riley,Acc,Participant_Images/610024bfd6e1038ba3b1601d/610024bfd6e1038ba3b1601d_Images/610024bfd6e1038ba3b1601d_Image_17.jpeg,did not like,1.779333479,,,,,,,,,,,,,,
,,,,,,space,1.1,NAN,,NAN,,0,81,81,81,1,82,Riley,Acc,Participant_Images/610024bfd6e1038ba3b1601d/610024bfd6e1038ba3b1601d_Images/610024bfd6e1038ba3b1601d_Image_28.jpeg,liked,4.312468682,,,,,,,,,,,,,,
,,,,,,space,0.7181,NAN,,NAN,,0,82,82,82,1,83,Riley,Acc,Participant_Images/610024bfd6e1038ba3b1601d/610024bfd6e1038ba3b1601d_Images/610024bfd6e1038ba3b1601d_Image_25.jpeg,did not like,4.940433059,,,,,,,,,,,,,,
,,,,,,space,0.7011,NAN,,NAN,,0,83,83,83,1,84,Riley,Acc,Participant_Images/610024bfd6e1038ba3b1601d/610024bfd6e1038ba3b1601d_Images/610024bfd6e1038ba3b1601d_Image_16.jpeg,liked,2.7105123,,,,,,,,,,,,,,
,,,,,,,,,,,,,,,,,,,,,,,s,1,space,1.6313,0,0,0,0,1,1.7364,h,1.1862,,
,,,,,,,,NAN,,NAN,,0,84,84,84,1,85,Riley,Acc,Participant_Images/610024bfd6e1038ba3b1601d/610024bfd6e1038ba3b1601d_Images/610024bfd6e1038ba3b1601d_Image_30.jpeg,liked,3.602308302,,,,,,,,,,,,,,
,,,,,,space,1.1334,NAN,,NAN,,0,85,85,85,1,86,Riley,Acc,Participant_Images/610024bfd6e1038ba3b1601d/610024bfd6e1038ba3b1601d_Images/610024bfd6e1038ba3b1601d_Image_26.jpeg,liked,4.106391878,,,,,,,,,,,,,,
,,,,,,space,1.0002,NAN,,NAN,,0,86,86,86,1,87,Riley,Acc,Participant_Images/610024bfd6e1038ba3b1601d/610024bfd6e1038ba3b1601d_Images/610024bfd6e1038ba3b1601d_Image_9.jpeg,liked,3.799433026,,,,,,,,,,,,,,
,,,,,,space,0.7341,NAN,,NAN,,0,87,87,87,1,88,Riley,Acc,Participant_Images/610024bfd6e1038ba3b1601d/610024bfd6e1038ba3b1601d_Images/610024bfd6e1038ba3b1601d_Image_11.jpeg,liked,5.246980764,,,,,,,,,,,,,,
,,,,,,space,3.3731,NAN,,NAN,,0,88,88,88,1,89,Riley,Acc,Participant_Images/610024bfd6e1038ba3b1601d/610024bfd6e1038ba3b1601d_Images/610024bfd6e1038ba3b1601d_Image_5.jpeg,liked,3.30081769,,,,,,,,,,,,,,
,,,,,,,,,,,,,,,,,,,,,,,s,1,space,3.3151,0,0,0,0,1,2.7167,h,2.069,,
,,,,,,,,4,,1,,0,89,89,89,1,90,Riley,Acc,Participant_Images/610024bfd6e1038ba3b1601d/610024bfd6e1038ba3b1601d_Images/610024bfd6e1038ba3b1601d_Image_8.jpeg,did not like,1.661473164,,,,,,,,,,,,,,
,,,,space,237.002,space,1.7016,NAN,,NAN,,0,90,90,90,1,91,Sam,Neutral,Participant_Images/610024bfd6e1038ba3b1601d/610024bfd6e1038ba3b1601d_Images/610024bfd6e1038ba3b1601d_Image_18.jpeg,did not like,3.613205605,,,,,,,,,,,,,,
,,,,,,space,3.0904,NAN,,NAN,,0,91,91,91,1,92,Sam,Neutral,Participant_Images/610024bfd6e1038ba3b1601d/610024bfd6e1038ba3b1601d_Images/610024bfd6e1038ba3b1601d_Image_8.jpeg,liked,4.988446431,,,,,,,,,,,,,,
,,,,,,space,13.3734,NAN,,NAN,,0,92,92,92,1,93,Sam,Neutral,Participant_Images/610024bfd6e1038ba3b1601d/610024bfd6e1038ba3b1601d_Images/610024bfd6e1038ba3b1601d_Image_19.jpeg,did not like,3.470791822,,,,,,,,,,,,,,
,,,,,,space,5.1821,NAN,,NAN,,0,93,93,93,1,94,Sam,Neutral,Participant_Images/610024bfd6e1038ba3b1601d/610024bfd6e1038ba3b1601d_Images/610024bfd6e1038ba3b1601d_Image_29.jpeg,liked,3.820572462,,,,,,,,,,,,,,
,,,,,,,,,,,,,,,,,,,,,,,s,1,space,1.284,0,0,0,0,1,1.6552,h,1.5754,,
,,,,,,,,NAN,,NAN,,0,94,94,94,1,95,Sam,Neutral,Participant_Images/610024bfd6e1038ba3b1601d/610024bfd6e1038ba3b1601d_Images/610024bfd6e1038ba3b1601d_Image_3.jpeg,did not like,2.455989137,,,,,,,,,,,,,,
,,,,,,space,2.2513,NAN,,NAN,,0,95,95,95,1,96,Sam,Neutral,Participant_Images/610024bfd6e1038ba3b1601d/610024bfd6e1038ba3b1601d_Images/610024bfd6e1038ba3b1601d_Image_7.jpeg,liked,3.79605092,,,,,,,,,,,,,,
,,,,,,space,0.4022,NAN,,NAN,,0,96,96,96,1,97,Sam,Neutral,Participant_Images/610024bfd6e1038ba3b1601d/610024bfd6e1038ba3b1601d_Images/610024bfd6e1038ba3b1601d_Image_14.jpeg,liked,3.562416326,,,,,,,,,,,,,,
,,,,,,space,0.5827,NAN,,NAN,,0,97,97,97,1,98,Sam,Neutral,Participant_Images/610024bfd6e1038ba3b1601d/610024bfd6e1038ba3b1601d_Images/610024bfd6e1038ba3b1601d_Image_28.jpeg,liked,2.843822497,,,,,,,,,,,,,,
,,,,,,space,0.3005,NAN,,NAN,,0,98,98,98,1,99,Sam,Neutral,Participant_Images/610024bfd6e1038ba3b1601d/610024bfd6e1038ba3b1601d_Images/610024bfd6e1038ba3b1601d_Image_1.jpeg,did not like,3.546495948,,,,,,,,,,,,,,
,,,,,,,,,,,,,,,,,,,,,,,s,1,space,2.038,0,0,0,0,1,2.0346,h,2.2021,,
,,,,,,,,NAN,,NAN,,0,99,99,99,1,100,Sam,Neutral,Participant_Images/610024bfd6e1038ba3b1601d/610024bfd6e1038ba3b1601d_Images/610024bfd6e1038ba3b1601d_Image_4.jpeg,did not like,1.672012706,,,,,,,,,,,,,,
,,,,,,space,2.2495,NAN,,NAN,,0,100,100,100,1,101,Sam,Neutral,Participant_Images/610024bfd6e1038ba3b1601d/610024bfd6e1038ba3b1601d_Images/610024bfd6e1038ba3b1601d_Image_16.jpeg,did not like,4.942172136,,,,,,,,,,,,,,
,,,,,,space,1.5004,NAN,,NAN,,0,101,101,101,1,102,Sam,Neutral,Participant_Images/610024bfd6e1038ba3b1601d/610024bfd6e1038ba3b1601d_Images/610024bfd6e1038ba3b1601d_Image_6.jpeg,liked,2.50187214,,,,,,,,,,,,,,
,,,,,,space,2.273,NAN,,NAN,,0,102,102,102,1,103,Sam,Neutral,Participant_Images/610024bfd6e1038ba3b1601d/610024bfd6e1038ba3b1601d_Images/610024bfd6e1038ba3b1601d_Image_26.jpeg,liked,2.071164779,,,,,,,,,,,,,,
,,,,,,space,0.7843,NAN,,NAN,,0,103,103,103,1,104,Sam,Neutral,Participant_Images/610024bfd6e1038ba3b1601d/610024bfd6e1038ba3b1601d_Images/610024bfd6e1038ba3b1601d_Image_9.jpeg,did not like,5.336503566,,,,,,,,,,,,,,
,,,,,,,,,,,,,,,,,,,,,,,s,1,space,2.7332,0,0,0,0,1,1.65,h,1.9517,,
,,,,,,,,NAN,,NAN,,0,104,104,104,1,105,Sam,Neutral,Participant_Images/610024bfd6e1038ba3b1601d/610024bfd6e1038ba3b1601d_Images/610024bfd6e1038ba3b1601d_Image_27.jpeg,did not like,2.642157193,,,,,,,,,,,,,,
,,,,,,space,1.3643,NAN,,NAN,,0,105,105,105,1,106,Sam,Neutral,Participant_Images/610024bfd6e1038ba3b1601d/610024bfd6e1038ba3b1601d_Images/610024bfd6e1038ba3b1601d_Image_21.jpeg,liked,4.456234322,,,,,,,,,,,,,,
,,,,,,space,0.7333,NAN,,NAN,,0,106,106,106,1,107,Sam,Neutral,Participant_Images/610024bfd6e1038ba3b1601d/610024bfd6e1038ba3b1601d_Images/610024bfd6e1038ba3b1601d_Image_24.jpeg,liked,4.438512181,,,,,,,,,,,,,,
,,,,,,space,0.584,NAN,,NAN,,0,107,107,107,1,108,Sam,Neutral,Participant_Images/610024bfd6e1038ba3b1601d/610024bfd6e1038ba3b1601d_Images/610024bfd6e1038ba3b1601d_Image_12.jpeg,did not like,2.682944783,,,,,,,,,,,,,,
,,,,,,space,1.0006,NAN,,NAN,,0,108,108,108,1,109,Sam,Neutral,Participant_Images/610024bfd6e1038ba3b1601d/610024bfd6e1038ba3b1601d_Images/610024bfd6e1038ba3b1601d_Image_20.jpeg,did not like,4.51984296,,,,,,,,,,,,,,
,,,,,,,,,,,,,,,,,,,,,,,s,1,space,1.4162,0,0,0,0,1,1.8296,h,1.1843,,
,,,,,,,,NAN,,NAN,,0,109,109,109,1,110,Sam,Neutral,Participant_Images/610024bfd6e1038ba3b1601d/610024bfd6e1038ba3b1601d_Images/610024bfd6e1038ba3b1601d_Image_15.jpeg,did not like,3.195382774,,,,,,,,,,,,,,
,,,,,,space,1.4849,NAN,,NAN,,0,110,110,110,1,111,Sam,Neutral,Participant_Images/610024bfd6e1038ba3b1601d/610024bfd6e1038ba3b1601d_Images/610024bfd6e1038ba3b1601d_Image_22.jpeg,liked,1.779333479,,,,,,,,,,,,,,
,,,,,,space,0.2375,NAN,,NAN,,0,111,111,111,1,112,Sam,Neutral,Participant_Images/610024bfd6e1038ba3b1601d/610024bfd6e1038ba3b1601d_Images/610024bfd6e1038ba3b1601d_Image_2.jpeg,did not like,4.312468682,,,,,,,,,,,,,,
,,,,,,space,1.2253,NAN,,NAN,,0,112,112,112,1,113,Sam,Neutral,Participant_Images/610024bfd6e1038ba3b1601d/610024bfd6e1038ba3b1601d_Images/610024bfd6e1038ba3b1601d_Image_30.jpeg,liked,4.940433059,,,,,,,,,,,,,,
,,,,,,space,0.3663,NAN,,NAN,,0,113,113,113,1,114,Sam,Neutral,Participant_Images/610024bfd6e1038ba3b1601d/610024bfd6e1038ba3b1601d_Images/610024bfd6e1038ba3b1601d_Image_5.jpeg,liked,2.7105123,,,,,,,,,,,,,,
,,,,,,,,,,,,,,,,,,,,,,,s,1,space,1.1497,0,0,0,0,1,1.6073,h,0.3161,,
,,,,,,,,NAN,,NAN,,0,114,114,114,1,115,Sam,Neutral,Participant_Images/610024bfd6e1038ba3b1601d/610024bfd6e1038ba3b1601d_Images/610024bfd6e1038ba3b1601d_Image_11.jpeg,did not like,3.602308302,,,,,,,,,,,,,,
,,,,,,space,0.4717,NAN,,NAN,,0,115,115,115,1,116,Sam,Neutral,Participant_Images/610024bfd6e1038ba3b1601d/610024bfd6e1038ba3b1601d_Images/610024bfd6e1038ba3b1601d_Image_25.jpeg,liked,4.106391878,,,,,,,,,,,,,,
,,,,,,space,1.3489,NAN,,NAN,,0,116,116,116,1,117,Sam,Neutral,Participant_Images/610024bfd6e1038ba3b1601d/610024bfd6e1038ba3b1601d_Images/610024bfd6e1038ba3b1601d_Image_13.jpeg,did not like,3.799433026,,,,,,,,,,,,,,
,,,,,,space,1.4939,NAN,,NAN,,0,117,117,117,1,118,Sam,Neutral,Participant_Images/610024bfd6e1038ba3b1601d/610024bfd6e1038ba3b1601d_Images/610024bfd6e1038ba3b1601d_Image_17.jpeg,liked,5.246980764,,,,,,,,,,,,,,
,,,,,,space,2.9274,NAN,,NAN,,0,118,118,118,1,119,Sam,Neutral,Participant_Images/610024bfd6e1038ba3b1601d/610024bfd6e1038ba3b1601d_Images/610024bfd6e1038ba3b1601d_Image_23.jpeg,liked,3.30081769,,,,,,,,,,,,,,
,,,,,,,,,,,,,,,,,,,,,,,s,1,space,3.2672,0,0,0,0,1,1.739,h,2.3733,,
,,,,,,,,3,,2,,0,119,119,119,1,120,Sam,Neutral,Participant_Images/610024bfd6e1038ba3b1601d/610024bfd6e1038ba3b1601d_Images/610024bfd6e1038ba3b1601d_Image_10.jpeg,did not like,1.661473164,,,,,,,,,,,,,,
,,,,space,8.9699,space,0.7916,NAN,,NAN,,0,120,120,120,1,121,Taylor,Rej,Participant_Images/610024bfd6e1038ba3b1601d/610024bfd6e1038ba3b1601d_Images/610024bfd6e1038ba3b1601d_Image_10.jpeg,did not like,3.613205605,,,,,,,,,,,,,,
,,,,,,space,8.789,NAN,,NAN,,0,121,121,121,1,122,Taylor,Rej,Participant_Images/610024bfd6e1038ba3b1601d/610024bfd6e1038ba3b1601d_Images/610024bfd6e1038ba3b1601d_Image_8.jpeg,liked,4.988446431,,,,,,,,,,,,,,
,,,,,,space,0.6685,NAN,,NAN,,0,122,122,122,1,123,Taylor,Rej,Participant_Images/610024bfd6e1038ba3b1601d/610024bfd6e1038ba3b1601d_Images/610024bfd6e1038ba3b1601d_Image_4.jpeg,did not like,3.470791822,,,,,,,,,,,,,,
,,,,,,space,0.7999,NAN,,NAN,,0,123,123,123,1,124,Taylor,Rej,Participant_Images/610024bfd6e1038ba3b1601d/610024bfd6e1038ba3b1601d_Images/610024bfd6e1038ba3b1601d_Image_18.jpeg,did not like,3.820572462,,,,,,,,,,,,,,
,,,,,,,,,,,,,,,,,,,,,,,s,1,space,1.7997,0,0,0,0,1,1.6425,h,2.0256,,
,,,,,,,,NAN,,NAN,,0,124,124,124,1,125,Taylor,Rej,Participant_Images/610024bfd6e1038ba3b1601d/610024bfd6e1038ba3b1601d_Images/610024bfd6e1038ba3b1601d_Image_11.jpeg,did not like,2.455989137,,,,,,,,,,,,,,
,,,,,,space,1.9076,NAN,,NAN,,0,125,125,125,1,126,Taylor,Rej,Participant_Images/610024bfd6e1038ba3b1601d/610024bfd6e1038ba3b1601d_Images/610024bfd6e1038ba3b1601d_Image_9.jpeg,did not like,3.79605092,,,,,,,,,,,,,,
,,,,,,space,3.1841,NAN,,NAN,,0,126,126,126,1,127,Taylor,Rej,Participant_Images/610024bfd6e1038ba3b1601d/610024bfd6e1038ba3b1601d_Images/610024bfd6e1038ba3b1601d_Image_17.jpeg,did not like,3.562416326,,,,,,,,,,,,,,
,,,,,,space,3.3593,NAN,,NAN,,0,127,127,127,1,128,Taylor,Rej,Participant_Images/610024bfd6e1038ba3b1601d/610024bfd6e1038ba3b1601d_Images/610024bfd6e1038ba3b1601d_Image_16.jpeg,liked,2.843822497,,,,,,,,,,,,,,
,,,,,,space,7.5765,NAN,,NAN,,0,128,128,128,1,129,Taylor,Rej,Participant_Images/610024bfd6e1038ba3b1601d/610024bfd6e1038ba3b1601d_Images/610024bfd6e1038ba3b1601d_Image_3.jpeg,did not like,3.546495948,,,,,,,,,,,,,,
,,,,,,,,,,,,,,,,,,,,,,,s,1,space,1.3204,0,0,0,0,1,1.901,h,0.7997,,
,,,,,,,,NAN,,NAN,,0,129,129,129,1,130,Taylor,Rej,Participant_Images/610024bfd6e1038ba3b1601d/610024bfd6e1038ba3b1601d_Images/610024bfd6e1038ba3b1601d_Image_29.jpeg,liked,1.672012706,,,,,,,,,,,,,,
,,,,,,space,2.1643,NAN,,NAN,,0,130,130,130,1,131,Taylor,Rej,Participant_Images/610024bfd6e1038ba3b1601d/610024bfd6e1038ba3b1601d_Images/610024bfd6e1038ba3b1601d_Image_27.jpeg,did not like,4.942172136,,,,,,,,,,,,,,
,,,,,,space,1.2907,NAN,,NAN,,0,131,131,131,1,132,Taylor,Rej,Participant_Images/610024bfd6e1038ba3b1601d/610024bfd6e1038ba3b1601d_Images/610024bfd6e1038ba3b1601d_Image_13.jpeg,did not like,2.50187214,,,,,,,,,,,,,,
,,,,,,space,1.4026,NAN,,NAN,,0,132,132,132,1,133,Taylor,Rej,Participant_Images/610024bfd6e1038ba3b1601d/610024bfd6e1038ba3b1601d_Images/610024bfd6e1038ba3b1601d_Image_12.jpeg,did not like,2.071164779,,,,,,,,,,,,,,
,,,,,,space,0.5672,NAN,,NAN,,0,133,133,133,1,134,Taylor,Rej,Participant_Images/610024bfd6e1038ba3b1601d/610024bfd6e1038ba3b1601d_Images/610024bfd6e1038ba3b1601d_Image_14.jpeg,did not like,5.336503566,,,,,,,,,,,,,,
,,,,,,,,,,,,,,,,,,,,,,,s,1,space,0.5682,0,0,0,0,1,1.9371,h,0.4186,,
,,,,,,,,NAN,,NAN,,0,134,134,134,1,135,Taylor,Rej,Participant_Images/610024bfd6e1038ba3b1601d/610024bfd6e1038ba3b1601d_Images/610024bfd6e1038ba3b1601d_Image_24.jpeg,did not like,2.642157193,,,,,,,,,,,,,,
,,,,,,space,1.7175,NAN,,NAN,,0,135,135,135,1,136,Taylor,Rej,Participant_Images/610024bfd6e1038ba3b1601d/610024bfd6e1038ba3b1601d_Images/610024bfd6e1038ba3b1601d_Image_1.jpeg,liked,4.456234322,,,,,,,,,,,,,,
,,,,,,space,1.5505,NAN,,NAN,,0,136,136,136,1,137,Taylor,Rej,Participant_Images/610024bfd6e1038ba3b1601d/610024bfd6e1038ba3b1601d_Images/610024bfd6e1038ba3b1601d_Image_20.jpeg,did not like,4.438512181,,,,,,,,,,,,,,
,,,,,,space,0.5324,NAN,,NAN,,0,137,137,137,1,138,Taylor,Rej,Participant_Images/610024bfd6e1038ba3b1601d/610024bfd6e1038ba3b1601d_Images/610024bfd6e1038ba3b1601d_Image_5.jpeg,did not like,2.682944783,,,,,,,,,,,,,,
,,,,,,space,0.4333,NAN,,NAN,,0,138,138,138,1,139,Taylor,Rej,Participant_Images/610024bfd6e1038ba3b1601d/610024bfd6e1038ba3b1601d_Images/610024bfd6e1038ba3b1601d_Image_30.jpeg,liked,4.51984296,,,,,,,,,,,,,,
,,,,,,,,,,,,,,,,,,,,,,,s,1,space,1.222,0,0,0,0,1,1.3283,h,0.5742,,
,,,,,,,,NAN,,NAN,,0,139,139,139,1,140,Taylor,Rej,Participant_Images/610024bfd6e1038ba3b1601d/610024bfd6e1038ba3b1601d_Images/610024bfd6e1038ba3b1601d_Image_15.jpeg,did not like,3.195382774,,,,,,,,,,,,,,
,,,,,,space,1.3033,NAN,,NAN,,0,140,140,140,1,141,Taylor,Rej,Participant_Images/610024bfd6e1038ba3b1601d/610024bfd6e1038ba3b1601d_Images/610024bfd6e1038ba3b1601d_Image_25.jpeg,did not like,1.779333479,,,,,,,,,,,,,,
,,,,,,space,0.6008,NAN,,NAN,,0,141,141,141,1,142,Taylor,Rej,Participant_Images/610024bfd6e1038ba3b1601d/610024bfd6e1038ba3b1601d_Images/610024bfd6e1038ba3b1601d_Image_6.jpeg,liked,4.312468682,,,,,,,,,,,,,,
,,,,,,space,1.5162,NAN,,NAN,,0,142,142,142,1,143,Taylor,Rej,Participant_Images/610024bfd6e1038ba3b1601d/610024bfd6e1038ba3b1601d_Images/610024bfd6e1038ba3b1601d_Image_2.jpeg,did not like,4.940433059,,,,,,,,,,,,,,
,,,,,,space,1.4844,NAN,,NAN,,0,143,143,143,1,144,Taylor,Rej,Participant_Images/610024bfd6e1038ba3b1601d/610024bfd6e1038ba3b1601d_Images/610024bfd6e1038ba3b1601d_Image_22.jpeg,did not like,2.7105123,,,,,,,,,,,,,,
,,,,,,,,,,,,,,,,,,,,,,,s,1,space,3.1835,0,0,0,0,1,1.3938,h,1.2028,,
,,,,,,,,NAN,,NAN,,0,144,144,144,1,145,Taylor,Rej,Participant_Images/610024bfd6e1038ba3b1601d/610024bfd6e1038ba3b1601d_Images/610024bfd6e1038ba3b1601d_Image_19.jpeg,liked,3.602308302,,,,,,,,,,,,,,
,,,,,,space,1.9408,NAN,,NAN,,0,145,145,145,1,146,Taylor,Rej,Participant_Images/610024bfd6e1038ba3b1601d/610024bfd6e1038ba3b1601d_Images/610024bfd6e1038ba3b1601d_Image_21.jpeg,did not like,4.106391878,,,,,,,,,,,,,,
,,,,,,space,1.2837,NAN,,NAN,,0,146,146,146,1,147,Taylor,Rej,Participant_Images/610024bfd6e1038ba3b1601d/610024bfd6e1038ba3b1601d_Images/610024bfd6e1038ba3b1601d_Image_26.jpeg,liked,3.799433026,,,,,,,,,,,,,,
,,,,,,space,1.1981,NAN,,NAN,,0,147,147,147,1,148,Taylor,Rej,Participant_Images/610024bfd6e1038ba3b1601d/610024bfd6e1038ba3b1601d_Images/610024bfd6e1038ba3b1601d_Image_28.jpeg,did not like,5.246980764,,,,,,,,,,,,,,
,,,,,,space,1.0666,NAN,,NAN,,0,148,148,148,1,149,Taylor,Rej,Participant_Images/610024bfd6e1038ba3b1601d/610024bfd6e1038ba3b1601d_Images/610024bfd6e1038ba3b1601d_Image_7.jpeg,did not like,3.30081769,,,,,,,,,,,,,,
,,,,,,,,,,,,,,,,,,,,,,,s,1,space,1.8545,0,0,0,0,1,1.5249,h,1.1637,,
,,,,,,,,1,,1,,0,149,149,149,1,150,Taylor,Rej,Participant_Images/610024bfd6e1038ba3b1601d/610024bfd6e1038ba3b1601d_Images/610024bfd6e1038ba3b1601d_Image_23.jpeg,liked,1.661473164,,,,,,,,,,,,,,
,,,,,,,,,,,,,,,,,,,,,,,,,,,,,,,,,,,space,3.6377
