endwelcomescreen_keys.keys,endwelcomescreen_keys.rt,endinstructionscreen_keys.keys,endinstructionscreen_keys.rt,endpartnermatch_keys.keys,endpartnermatch_keys.rt,sharenextphoto_key.keys,sharenextphoto_key.rt,salience_rating,key_resp.keys,stress_level,stresslevel_keypress.keys,entiretaskloop.thisRepN,entiretaskloop.thisTrialN,entiretaskloop.thisN,entiretaskloop.thisIndex,entiretaskloop.ran,TrialNumber,Partner,Condition,Photos,Feedback,FeedbackWait,choice_keys.keys,playlottery,resumeafterlottery_keys.keys,resumeafterlottery_keys.rt,lotteryloop.thisRepN,lotteryloop.thisTrialN,lotteryloop.thisN,lotteryloop.thisIndex,lotteryloop.ran,choice_keys.rt,lotteryguess_keys.keys,lotteryguess_keys.rt,end_screen_keys.keys,end_screen_keys.rt
space,9.1114,,,,,,,,,,,,,,,,,,,,,,,,,,,,,,,,,,,
,,,,,,,,,,,,,,,,,,,,,,,,,,,,,,,,,,,,
,,space,6.4509,,,,,,,,,,,,,,,,,,,,,,,,,,,,,,,,,
,,,,space,1.9549,space,0.8566,NAN,,NAN,,0,0,0,0,1,1,Charlie,Neutral,Participant_Images/61006614d4c56450afce3a6b/61006614d4c56450afce3a6b_Images/61006614d4c56450afce3a6b_Image_27.jpeg,liked,3.613205605,,,,,,,,,,,,,,
,,,,,,space,0.9873,NAN,,NAN,,0,1,1,1,1,2,Charlie,Neutral,Participant_Images/61006614d4c56450afce3a6b/61006614d4c56450afce3a6b_Images/61006614d4c56450afce3a6b_Image_9.jpeg,liked,4.988446431,,,,,,,,,,,,,,
,,,,,,space,0.7739,NAN,,NAN,,0,2,2,2,1,3,Charlie,Neutral,Participant_Images/61006614d4c56450afce3a6b/61006614d4c56450afce3a6b_Images/61006614d4c56450afce3a6b_Image_16.jpeg,liked,3.470791822,,,,,,,,,,,,,,
,,,,,,space,0.9577,NAN,,NAN,,0,3,3,3,1,4,Charlie,Neutral,Participant_Images/61006614d4c56450afce3a6b/61006614d4c56450afce3a6b_Images/61006614d4c56450afce3a6b_Image_22.jpeg,did not like,3.820572462,,,,,,,,,,,,,,
,,,,,,,,,,,,,,,,,,,,,,,,999,space,2.2202,0,0,0,0,1,,,,,
,,,,,,,,NAN,,NAN,,0,4,4,4,1,5,Charlie,Neutral,Participant_Images/61006614d4c56450afce3a6b/61006614d4c56450afce3a6b_Images/61006614d4c56450afce3a6b_Image_11.jpeg,liked,2.455989137,,,,,,,,,,,,,,
,,,,,,space,0.7954,NAN,,NAN,,0,5,5,5,1,6,Charlie,Neutral,Participant_Images/61006614d4c56450afce3a6b/61006614d4c56450afce3a6b_Images/61006614d4c56450afce3a6b_Image_5.jpeg,did not like,3.79605092,,,,,,,,,,,,,,
,,,,,,space,0.6626,NAN,,NAN,,0,6,6,6,1,7,Charlie,Neutral,Participant_Images/61006614d4c56450afce3a6b/61006614d4c56450afce3a6b_Images/61006614d4c56450afce3a6b_Image_18.jpeg,did not like,3.562416326,,,,,,,,,,,,,,
,,,,,,space,0.6461,NAN,,NAN,,0,7,7,7,1,8,Charlie,Neutral,Participant_Images/61006614d4c56450afce3a6b/61006614d4c56450afce3a6b_Images/61006614d4c56450afce3a6b_Image_15.jpeg,liked,2.843822497,,,,,,,,,,,,,,
,,,,,,space,0.2753,NAN,,NAN,,0,8,8,8,1,9,Charlie,Neutral,Participant_Images/61006614d4c56450afce3a6b/61006614d4c56450afce3a6b_Images/61006614d4c56450afce3a6b_Image_26.jpeg,liked,3.546495948,,,,,,,,,,,,,,
,,,,,,,,,,,,,,,,,,,,,,,s,1,space,1.4774,0,0,0,0,1,3.4433,,,,
,,,,,,,,NAN,,NAN,,0,9,9,9,1,10,Charlie,Neutral,Participant_Images/61006614d4c56450afce3a6b/61006614d4c56450afce3a6b_Images/61006614d4c56450afce3a6b_Image_13.jpeg,did not like,1.672012706,,,,,,,,,,,,,,
,,,,,,space,0.9596,NAN,,NAN,,0,10,10,10,1,11,Charlie,Neutral,Participant_Images/61006614d4c56450afce3a6b/61006614d4c56450afce3a6b_Images/61006614d4c56450afce3a6b_Image_23.jpeg,did not like,4.942172136,,,,,,,,,,,,,,
,,,,,,space,0.5753,NAN,,NAN,,0,11,11,11,1,12,Charlie,Neutral,Participant_Images/61006614d4c56450afce3a6b/61006614d4c56450afce3a6b_Images/61006614d4c56450afce3a6b_Image_19.jpeg,did not like,2.50187214,,,,,,,,,,,,,,
,,,,,,space,0.8974,NAN,,NAN,,0,12,12,12,1,13,Charlie,Neutral,Participant_Images/61006614d4c56450afce3a6b/61006614d4c56450afce3a6b_Images/61006614d4c56450afce3a6b_Image_28.jpeg,liked,2.071164779,,,,,,,,,,,,,,
,,,,,,space,0.6863,NAN,,NAN,,0,13,13,13,1,14,Charlie,Neutral,Participant_Images/61006614d4c56450afce3a6b/61006614d4c56450afce3a6b_Images/61006614d4c56450afce3a6b_Image_7.jpeg,liked,5.336503566,,,,,,,,,,,,,,
,,,,,,,,,,,,,,,,,,,,,,,s,1,space,0.7342,0,0,0,0,1,1.7066,h,2.7385,,
,,,,,,,,NAN,,NAN,,0,14,14,14,1,15,Charlie,Neutral,Participant_Images/61006614d4c56450afce3a6b/61006614d4c56450afce3a6b_Images/61006614d4c56450afce3a6b_Image_2.jpeg,did not like,2.642157193,,,,,,,,,,,,,,
,,,,,,space,1.3387,NAN,,NAN,,0,15,15,15,1,16,Charlie,Neutral,Participant_Images/61006614d4c56450afce3a6b/61006614d4c56450afce3a6b_Images/61006614d4c56450afce3a6b_Image_30.jpeg,did not like,4.456234322,,,,,,,,,,,,,,
,,,,,,space,1.7248,NAN,,NAN,,0,16,16,16,1,17,Charlie,Neutral,Participant_Images/61006614d4c56450afce3a6b/61006614d4c56450afce3a6b_Images/61006614d4c56450afce3a6b_Image_3.jpeg,did not like,4.438512181,,,,,,,,,,,,,,
,,,,,,space,0.8074,NAN,,NAN,,0,17,17,17,1,18,Charlie,Neutral,Participant_Images/61006614d4c56450afce3a6b/61006614d4c56450afce3a6b_Images/61006614d4c56450afce3a6b_Image_17.jpeg,liked,2.682944783,,,,,,,,,,,,,,
,,,,,,space,0.7076,NAN,,NAN,,0,18,18,18,1,19,Charlie,Neutral,Participant_Images/61006614d4c56450afce3a6b/61006614d4c56450afce3a6b_Images/61006614d4c56450afce3a6b_Image_14.jpeg,liked,4.51984296,,,,,,,,,,,,,,
,,,,,,,,,,,,,,,,,,,,,,,s,1,space,0.817,0,0,0,0,1,1.0856,l,1.211,,
,,,,,,,,NAN,,NAN,,0,19,19,19,1,20,Charlie,Neutral,Participant_Images/61006614d4c56450afce3a6b/61006614d4c56450afce3a6b_Images/61006614d4c56450afce3a6b_Image_1.jpeg,did not like,3.195382774,,,,,,,,,,,,,,
,,,,,,space,0.8843,NAN,,NAN,,0,20,20,20,1,21,Charlie,Neutral,Participant_Images/61006614d4c56450afce3a6b/61006614d4c56450afce3a6b_Images/61006614d4c56450afce3a6b_Image_6.jpeg,liked,1.779333479,,,,,,,,,,,,,,
,,,,,,space,0.6438,NAN,,NAN,,0,21,21,21,1,22,Charlie,Neutral,Participant_Images/61006614d4c56450afce3a6b/61006614d4c56450afce3a6b_Images/61006614d4c56450afce3a6b_Image_10.jpeg,did not like,4.312468682,,,,,,,,,,,,,,
,,,,,,space,0.879,NAN,,NAN,,0,22,22,22,1,23,Charlie,Neutral,Participant_Images/61006614d4c56450afce3a6b/61006614d4c56450afce3a6b_Images/61006614d4c56450afce3a6b_Image_25.jpeg,liked,4.940433059,,,,,,,,,,,,,,
,,,,,,space,3.3848,NAN,,NAN,,0,23,23,23,1,24,Charlie,Neutral,Participant_Images/61006614d4c56450afce3a6b/61006614d4c56450afce3a6b_Images/61006614d4c56450afce3a6b_Image_29.jpeg,liked,2.7105123,,,,,,,,,,,,,,
,,,,,,,,,,,,,,,,,,,,,,,s,1,space,0.9826,0,0,0,0,1,1.3026,h,0.8405,,
,,,,,,,,NAN,,NAN,,0,24,24,24,1,25,Charlie,Neutral,Participant_Images/61006614d4c56450afce3a6b/61006614d4c56450afce3a6b_Images/61006614d4c56450afce3a6b_Image_21.jpeg,liked,3.602308302,,,,,,,,,,,,,,
,,,,,,space,5.6187,NAN,,NAN,,0,25,25,25,1,26,Charlie,Neutral,Participant_Images/61006614d4c56450afce3a6b/61006614d4c56450afce3a6b_Images/61006614d4c56450afce3a6b_Image_20.jpeg,did not like,4.106391878,,,,,,,,,,,,,,
,,,,,,space,0.8318,NAN,,NAN,,0,26,26,26,1,27,Charlie,Neutral,Participant_Images/61006614d4c56450afce3a6b/61006614d4c56450afce3a6b_Images/61006614d4c56450afce3a6b_Image_12.jpeg,did not like,3.799433026,,,,,,,,,,,,,,
,,,,,,space,0.999,NAN,,NAN,,0,27,27,27,1,28,Charlie,Neutral,Participant_Images/61006614d4c56450afce3a6b/61006614d4c56450afce3a6b_Images/61006614d4c56450afce3a6b_Image_8.jpeg,did not like,5.246980764,,,,,,,,,,,,,,
,,,,,,space,0.7702,NAN,,NAN,,0,28,28,28,1,29,Charlie,Neutral,Participant_Images/61006614d4c56450afce3a6b/61006614d4c56450afce3a6b_Images/61006614d4c56450afce3a6b_Image_24.jpeg,did not like,3.30081769,,,,,,,,,,,,,,
,,,,,,,,,,,,,,,,,,,,,,,s,1,space,0.892,0,0,0,0,1,1.3625,h,0.564,,
,,,,,,,,4,,3,,0,29,29,29,1,30,Charlie,Neutral,Participant_Images/61006614d4c56450afce3a6b/61006614d4c56450afce3a6b_Images/61006614d4c56450afce3a6b_Image_4.jpeg,liked,1.661473164,,,,,,,,,,,,,,
,,,,space,3.4324,space,1.2426,NAN,,NAN,,0,30,30,30,1,31,Taylor,Rej,Participant_Images/61006614d4c56450afce3a6b/61006614d4c56450afce3a6b_Images/61006614d4c56450afce3a6b_Image_19.jpeg,did not like,3.613205605,,,,,,,,,,,,,,
,,,,,,space,5.4573,NAN,,NAN,,0,31,31,31,1,32,Taylor,Rej,Participant_Images/61006614d4c56450afce3a6b/61006614d4c56450afce3a6b_Images/61006614d4c56450afce3a6b_Image_20.jpeg,did not like,4.988446431,,,,,,,,,,,,,,
,,,,,,space,1.3228,NAN,,NAN,,0,32,32,32,1,33,Taylor,Rej,Participant_Images/61006614d4c56450afce3a6b/61006614d4c56450afce3a6b_Images/61006614d4c56450afce3a6b_Image_16.jpeg,did not like,3.470791822,,,,,,,,,,,,,,
,,,,,,space,2.4622,NAN,,NAN,,0,33,33,33,1,34,Taylor,Rej,Participant_Images/61006614d4c56450afce3a6b/61006614d4c56450afce3a6b_Images/61006614d4c56450afce3a6b_Image_2.jpeg,did not like,3.820572462,,,,,,,,,,,,,,
,,,,,,,,,,,,,,,,,,,,,,,s,1,space,1.9769,0,0,0,0,1,1.3148,h,1.2405,,
,,,,,,,,NAN,,NAN,,0,34,34,34,1,35,Taylor,Rej,Participant_Images/61006614d4c56450afce3a6b/61006614d4c56450afce3a6b_Images/61006614d4c56450afce3a6b_Image_3.jpeg,liked,2.455989137,,,,,,,,,,,,,,
,,,,,,space,2.6722,NAN,,NAN,,0,35,35,35,1,36,Taylor,Rej,Participant_Images/61006614d4c56450afce3a6b/61006614d4c56450afce3a6b_Images/61006614d4c56450afce3a6b_Image_8.jpeg,liked,3.79605092,,,,,,,,,,,,,,
,,,,,,space,0.7924,NAN,,NAN,,0,36,36,36,1,37,Taylor,Rej,Participant_Images/61006614d4c56450afce3a6b/61006614d4c56450afce3a6b_Images/61006614d4c56450afce3a6b_Image_18.jpeg,did not like,3.562416326,,,,,,,,,,,,,,
,,,,,,space,9.3,NAN,,NAN,,0,37,37,37,1,38,Taylor,Rej,Participant_Images/61006614d4c56450afce3a6b/61006614d4c56450afce3a6b_Images/61006614d4c56450afce3a6b_Image_1.jpeg,did not like,2.843822497,,,,,,,,,,,,,,
,,,,,,space,0.8598,NAN,,NAN,,0,38,38,38,1,39,Taylor,Rej,Participant_Images/61006614d4c56450afce3a6b/61006614d4c56450afce3a6b_Images/61006614d4c56450afce3a6b_Image_27.jpeg,did not like,3.546495948,,,,,,,,,,,,,,
,,,,,,,,,,,,,,,,,,,,,,,s,1,space,1.7818,0,0,0,0,1,2.8708,h,1.9649,,
,,,,,,,,NAN,,NAN,,0,39,39,39,1,40,Taylor,Rej,Participant_Images/61006614d4c56450afce3a6b/61006614d4c56450afce3a6b_Images/61006614d4c56450afce3a6b_Image_11.jpeg,did not like,1.672012706,,,,,,,,,,,,,,
,,,,,,space,3.0948,NAN,,NAN,,0,40,40,40,1,41,Taylor,Rej,Participant_Images/61006614d4c56450afce3a6b/61006614d4c56450afce3a6b_Images/61006614d4c56450afce3a6b_Image_5.jpeg,did not like,4.942172136,,,,,,,,,,,,,,
,,,,,,space,1.5587,NAN,,NAN,,0,41,41,41,1,42,Taylor,Rej,Participant_Images/61006614d4c56450afce3a6b/61006614d4c56450afce3a6b_Images/61006614d4c56450afce3a6b_Image_15.jpeg,did not like,2.50187214,,,,,,,,,,,,,,
,,,,,,space,5.1668,NAN,,NAN,,0,42,42,42,1,43,Taylor,Rej,Participant_Images/61006614d4c56450afce3a6b/61006614d4c56450afce3a6b_Images/61006614d4c56450afce3a6b_Image_4.jpeg,did not like,2.071164779,,,,,,,,,,,,,,
,,,,,,space,3.9629,NAN,,NAN,,0,43,43,43,1,44,Taylor,Rej,Participant_Images/61006614d4c56450afce3a6b/61006614d4c56450afce3a6b_Images/61006614d4c56450afce3a6b_Image_7.jpeg,liked,5.336503566,,,,,,,,,,,,,,
,,,,,,,,,,,,,,,,,,,,,,,s,1,space,2.9701,0,0,0,0,1,1.6646,,,,
,,,,,,,,NAN,,NAN,,0,44,44,44,1,45,Taylor,Rej,Participant_Images/61006614d4c56450afce3a6b/61006614d4c56450afce3a6b_Images/61006614d4c56450afce3a6b_Image_25.jpeg,liked,2.642157193,,,,,,,,,,,,,,
,,,,,,space,2.0558,NAN,,NAN,,0,45,45,45,1,46,Taylor,Rej,Participant_Images/61006614d4c56450afce3a6b/61006614d4c56450afce3a6b_Images/61006614d4c56450afce3a6b_Image_12.jpeg,liked,4.456234322,,,,,,,,,,,,,,
,,,,,,space,2.046,NAN,,NAN,,0,46,46,46,1,47,Taylor,Rej,Participant_Images/61006614d4c56450afce3a6b/61006614d4c56450afce3a6b_Images/61006614d4c56450afce3a6b_Image_29.jpeg,liked,4.438512181,,,,,,,,,,,,,,
,,,,,,space,0.9406,NAN,,NAN,,0,47,47,47,1,48,Taylor,Rej,Participant_Images/61006614d4c56450afce3a6b/61006614d4c56450afce3a6b_Images/61006614d4c56450afce3a6b_Image_30.jpeg,liked,2.682944783,,,,,,,,,,,,,,
,,,,,,space,1.7613,NAN,,NAN,,0,48,48,48,1,49,Taylor,Rej,Participant_Images/61006614d4c56450afce3a6b/61006614d4c56450afce3a6b_Images/61006614d4c56450afce3a6b_Image_9.jpeg,did not like,4.51984296,,,,,,,,,,,,,,
,,,,,,,,,,,,,,,,,,,,,,,s,1,space,0.6649,0,0,0,0,1,1.3769,l,0.7236,,
,,,,,,,,NAN,,NAN,,0,49,49,49,1,50,Taylor,Rej,Participant_Images/61006614d4c56450afce3a6b/61006614d4c56450afce3a6b_Images/61006614d4c56450afce3a6b_Image_24.jpeg,did not like,3.195382774,,,,,,,,,,,,,,
,,,,,,space,3.4907,NAN,,NAN,,0,50,50,50,1,51,Taylor,Rej,Participant_Images/61006614d4c56450afce3a6b/61006614d4c56450afce3a6b_Images/61006614d4c56450afce3a6b_Image_22.jpeg,did not like,1.779333479,,,,,,,,,,,,,,
,,,,,,space,3.1994,NAN,,NAN,,0,51,51,51,1,52,Taylor,Rej,Participant_Images/61006614d4c56450afce3a6b/61006614d4c56450afce3a6b_Images/61006614d4c56450afce3a6b_Image_14.jpeg,did not like,4.312468682,,,,,,,,,,,,,,
,,,,,,space,1.4229,NAN,,NAN,,0,52,52,52,1,53,Taylor,Rej,Participant_Images/61006614d4c56450afce3a6b/61006614d4c56450afce3a6b_Images/61006614d4c56450afce3a6b_Image_23.jpeg,did not like,4.940433059,,,,,,,,,,,,,,
,,,,,,space,1.7058,NAN,,NAN,,0,53,53,53,1,54,Taylor,Rej,Participant_Images/61006614d4c56450afce3a6b/61006614d4c56450afce3a6b_Images/61006614d4c56450afce3a6b_Image_6.jpeg,liked,2.7105123,,,,,,,,,,,,,,
,,,,,,,,,,,,,,,,,,,,,,,s,1,space,0.6918,0,0,0,0,1,1.0272,h,0.9953,,
,,,,,,,,NAN,,NAN,,0,54,54,54,1,55,Taylor,Rej,Participant_Images/61006614d4c56450afce3a6b/61006614d4c56450afce3a6b_Images/61006614d4c56450afce3a6b_Image_10.jpeg,did not like,3.602308302,,,,,,,,,,,,,,
,,,,,,space,1.7185,NAN,,NAN,,0,55,55,55,1,56,Taylor,Rej,Participant_Images/61006614d4c56450afce3a6b/61006614d4c56450afce3a6b_Images/61006614d4c56450afce3a6b_Image_26.jpeg,did not like,4.106391878,,,,,,,,,,,,,,
,,,,,,space,4.2219,NAN,,NAN,,0,56,56,56,1,57,Taylor,Rej,Participant_Images/61006614d4c56450afce3a6b/61006614d4c56450afce3a6b_Images/61006614d4c56450afce3a6b_Image_13.jpeg,did not like,3.799433026,,,,,,,,,,,,,,
,,,,,,space,4.3737,NAN,,NAN,,0,57,57,57,1,58,Taylor,Rej,Participant_Images/61006614d4c56450afce3a6b/61006614d4c56450afce3a6b_Images/61006614d4c56450afce3a6b_Image_17.jpeg,liked,5.246980764,,,,,,,,,,,,,,
,,,,,,space,4.5381,NAN,,NAN,,0,58,58,58,1,59,Taylor,Rej,Participant_Images/61006614d4c56450afce3a6b/61006614d4c56450afce3a6b_Images/61006614d4c56450afce3a6b_Image_28.jpeg,did not like,3.30081769,,,,,,,,,,,,,,
,,,,,,,,,,,,,,,,,,,,,,,s,1,space,0.6775,0,0,0,0,1,1.1921,h,1.2313,,
,,,,,,,,4,,3,,0,59,59,59,1,60,Taylor,Rej,Participant_Images/61006614d4c56450afce3a6b/61006614d4c56450afce3a6b_Images/61006614d4c56450afce3a6b_Image_21.jpeg,did not like,1.661473164,,,,,,,,,,,,,,
,,,,space,16.2047,space,1.5488,NAN,,NAN,,0,60,60,60,1,61,Riley,Acc,Participant_Images/61006614d4c56450afce3a6b/61006614d4c56450afce3a6b_Images/61006614d4c56450afce3a6b_Image_18.jpeg,liked,3.613205605,,,,,,,,,,,,,,
,,,,,,space,4.3016,NAN,,NAN,,0,61,61,61,1,62,Riley,Acc,Participant_Images/61006614d4c56450afce3a6b/61006614d4c56450afce3a6b_Images/61006614d4c56450afce3a6b_Image_2.jpeg,liked,4.988446431,,,,,,,,,,,,,,
,,,,,,space,5.0398,NAN,,NAN,,0,62,62,62,1,63,Riley,Acc,Participant_Images/61006614d4c56450afce3a6b/61006614d4c56450afce3a6b_Images/61006614d4c56450afce3a6b_Image_4.jpeg,liked,3.470791822,,,,,,,,,,,,,,
,,,,,,space,6.4107,NAN,,NAN,,0,63,63,63,1,64,Riley,Acc,Participant_Images/61006614d4c56450afce3a6b/61006614d4c56450afce3a6b_Images/61006614d4c56450afce3a6b_Image_13.jpeg,did not like,3.820572462,,,,,,,,,,,,,,
,,,,,,,,,,,,,,,,,,,,,,,s,1,space,0.9708,0,0,0,0,1,1.8253,l,1.0868,,
,,,,,,,,NAN,,NAN,,0,64,64,64,1,65,Riley,Acc,Participant_Images/61006614d4c56450afce3a6b/61006614d4c56450afce3a6b_Images/61006614d4c56450afce3a6b_Image_29.jpeg,liked,2.455989137,,,,,,,,,,,,,,
,,,,,,space,2.115,NAN,,NAN,,0,65,65,65,1,66,Riley,Acc,Participant_Images/61006614d4c56450afce3a6b/61006614d4c56450afce3a6b_Images/61006614d4c56450afce3a6b_Image_9.jpeg,liked,3.79605092,,,,,,,,,,,,,,
,,,,,,space,10.5936,NAN,,NAN,,0,66,66,66,1,67,Riley,Acc,Participant_Images/61006614d4c56450afce3a6b/61006614d4c56450afce3a6b_Images/61006614d4c56450afce3a6b_Image_15.jpeg,did not like,3.562416326,,,,,,,,,,,,,,
,,,,,,space,1.7511,NAN,,NAN,,0,67,67,67,1,68,Riley,Acc,Participant_Images/61006614d4c56450afce3a6b/61006614d4c56450afce3a6b_Images/61006614d4c56450afce3a6b_Image_22.jpeg,liked,2.843822497,,,,,,,,,,,,,,
,,,,,,space,1.3906,NAN,,NAN,,0,68,68,68,1,69,Riley,Acc,Participant_Images/61006614d4c56450afce3a6b/61006614d4c56450afce3a6b_Images/61006614d4c56450afce3a6b_Image_12.jpeg,liked,3.546495948,,,,,,,,,,,,,,
,,,,,,,,,,,,,,,,,,,,,,,s,1,space,0.7691,0,0,0,0,1,1.6423,l,1.2086,,
,,,,,,,,NAN,,NAN,,0,69,69,69,1,70,Riley,Acc,Participant_Images/61006614d4c56450afce3a6b/61006614d4c56450afce3a6b_Images/61006614d4c56450afce3a6b_Image_17.jpeg,did not like,1.672012706,,,,,,,,,,,,,,
,,,,,,space,1.0092,NAN,,NAN,,0,70,70,70,1,71,Riley,Acc,Participant_Images/61006614d4c56450afce3a6b/61006614d4c56450afce3a6b_Images/61006614d4c56450afce3a6b_Image_30.jpeg,liked,4.942172136,,,,,,,,,,,,,,
,,,,,,space,1.6394,NAN,,NAN,,0,71,71,71,1,72,Riley,Acc,Participant_Images/61006614d4c56450afce3a6b/61006614d4c56450afce3a6b_Images/61006614d4c56450afce3a6b_Image_8.jpeg,liked,2.50187214,,,,,,,,,,,,,,
,,,,,,space,1.025,NAN,,NAN,,0,72,72,72,1,73,Riley,Acc,Participant_Images/61006614d4c56450afce3a6b/61006614d4c56450afce3a6b_Images/61006614d4c56450afce3a6b_Image_27.jpeg,did not like,2.071164779,,,,,,,,,,,,,,
,,,,,,space,1.1745,NAN,,NAN,,0,73,73,73,1,74,Riley,Acc,Participant_Images/61006614d4c56450afce3a6b/61006614d4c56450afce3a6b_Images/61006614d4c56450afce3a6b_Image_25.jpeg,liked,5.336503566,,,,,,,,,,,,,,
,,,,,,,,,,,,,,,,,,,,,,,s,1,space,0.8167,0,0,0,0,1,2.5689,l,1.5827,,
,,,,,,,,NAN,,NAN,,0,74,74,74,1,75,Riley,Acc,Participant_Images/61006614d4c56450afce3a6b/61006614d4c56450afce3a6b_Images/61006614d4c56450afce3a6b_Image_6.jpeg,liked,2.642157193,,,,,,,,,,,,,,
,,,,,,space,0.635,NAN,,NAN,,0,75,75,75,1,76,Riley,Acc,Participant_Images/61006614d4c56450afce3a6b/61006614d4c56450afce3a6b_Images/61006614d4c56450afce3a6b_Image_26.jpeg,did not like,4.456234322,,,,,,,,,,,,,,
,,,,,,space,0.7047,NAN,,NAN,,0,76,76,76,1,77,Riley,Acc,Participant_Images/61006614d4c56450afce3a6b/61006614d4c56450afce3a6b_Images/61006614d4c56450afce3a6b_Image_23.jpeg,liked,4.438512181,,,,,,,,,,,,,,
,,,,,,space,2.1396,NAN,,NAN,,0,77,77,77,1,78,Riley,Acc,Participant_Images/61006614d4c56450afce3a6b/61006614d4c56450afce3a6b_Images/61006614d4c56450afce3a6b_Image_20.jpeg,did not like,2.682944783,,,,,,,,,,,,,,
,,,,,,space,0.6479,NAN,,NAN,,0,78,78,78,1,79,Riley,Acc,Participant_Images/61006614d4c56450afce3a6b/61006614d4c56450afce3a6b_Images/61006614d4c56450afce3a6b_Image_28.jpeg,liked,4.51984296,,,,,,,,,,,,,,
,,,,,,,,,,,,,,,,,,,,,,,s,1,space,1.5444,0,0,0,0,1,1.5644,l,1.1014,,
,,,,,,,,NAN,,NAN,,0,79,79,79,1,80,Riley,Acc,Participant_Images/61006614d4c56450afce3a6b/61006614d4c56450afce3a6b_Images/61006614d4c56450afce3a6b_Image_21.jpeg,liked,3.195382774,,,,,,,,,,,,,,
,,,,,,space,1.3979,NAN,,NAN,,0,80,80,80,1,81,Riley,Acc,Participant_Images/61006614d4c56450afce3a6b/61006614d4c56450afce3a6b_Images/61006614d4c56450afce3a6b_Image_7.jpeg,did not like,1.779333479,,,,,,,,,,,,,,
,,,,,,space,425.3762,NAN,,NAN,,0,81,81,81,1,82,Riley,Acc,Participant_Images/61006614d4c56450afce3a6b/61006614d4c56450afce3a6b_Images/61006614d4c56450afce3a6b_Image_24.jpeg,liked,4.312468682,,,,,,,,,,,,,,
,,,,,,space,2.1648,NAN,,NAN,,0,82,82,82,1,83,Riley,Acc,Participant_Images/61006614d4c56450afce3a6b/61006614d4c56450afce3a6b_Images/61006614d4c56450afce3a6b_Image_10.jpeg,liked,4.940433059,,,,,,,,,,,,,,
,,,,,,space,44.2329,NAN,,NAN,,0,83,83,83,1,84,Riley,Acc,Participant_Images/61006614d4c56450afce3a6b/61006614d4c56450afce3a6b_Images/61006614d4c56450afce3a6b_Image_11.jpeg,did not like,2.7105123,,,,,,,,,,,,,,
,,,,,,,,,,,,,,,,,,,,,,,,999,space,10.4869,0,0,0,0,1,,,,,
,,,,,,,,NAN,,NAN,,0,84,84,84,1,85,Riley,Acc,Participant_Images/61006614d4c56450afce3a6b/61006614d4c56450afce3a6b_Images/61006614d4c56450afce3a6b_Image_1.jpeg,liked,3.602308302,,,,,,,,,,,,,,
,,,,,,space,1.6196,NAN,,NAN,,0,85,85,85,1,86,Riley,Acc,Participant_Images/61006614d4c56450afce3a6b/61006614d4c56450afce3a6b_Images/61006614d4c56450afce3a6b_Image_19.jpeg,did not like,4.106391878,,,,,,,,,,,,,,
,,,,,,space,6.2029,NAN,,NAN,,0,86,86,86,1,87,Riley,Acc,Participant_Images/61006614d4c56450afce3a6b/61006614d4c56450afce3a6b_Images/61006614d4c56450afce3a6b_Image_5.jpeg,liked,3.799433026,,,,,,,,,,,,,,
,,,,,,space,55.9197,NAN,,NAN,,0,87,87,87,1,88,Riley,Acc,Participant_Images/61006614d4c56450afce3a6b/61006614d4c56450afce3a6b_Images/61006614d4c56450afce3a6b_Image_3.jpeg,liked,5.246980764,,,,,,,,,,,,,,
,,,,,,space,7.158,NAN,,NAN,,0,88,88,88,1,89,Riley,Acc,Participant_Images/61006614d4c56450afce3a6b/61006614d4c56450afce3a6b_Images/61006614d4c56450afce3a6b_Image_14.jpeg,liked,3.30081769,,,,,,,,,,,,,,
,,,,,,,,,,,,,,,,,,,,,,,c,0,space,7.9437,0,0,0,0,1,1.158,,,,
,,,,,,,,4,,3,,0,89,89,89,1,90,Riley,Acc,Participant_Images/61006614d4c56450afce3a6b/61006614d4c56450afce3a6b_Images/61006614d4c56450afce3a6b_Image_16.jpeg,liked,1.661473164,,,,,,,,,,,,,,
,,,,space,132.9916,space,1.6659,NAN,,NAN,,0,90,90,90,1,91,Alex,Acc,Participant_Images/61006614d4c56450afce3a6b/61006614d4c56450afce3a6b_Images/61006614d4c56450afce3a6b_Image_22.jpeg,liked,3.613205605,,,,,,,,,,,,,,
,,,,,,space,8.0452,NAN,,NAN,,0,91,91,91,1,92,Alex,Acc,Participant_Images/61006614d4c56450afce3a6b/61006614d4c56450afce3a6b_Images/61006614d4c56450afce3a6b_Image_21.jpeg,did not like,4.988446431,,,,,,,,,,,,,,
,,,,,,space,12.3801,NAN,,NAN,,0,92,92,92,1,93,Alex,Acc,Participant_Images/61006614d4c56450afce3a6b/61006614d4c56450afce3a6b_Images/61006614d4c56450afce3a6b_Image_18.jpeg,did not like,3.470791822,,,,,,,,,,,,,,
,,,,,,space,11.5586,NAN,,NAN,,0,93,93,93,1,94,Alex,Acc,Participant_Images/61006614d4c56450afce3a6b/61006614d4c56450afce3a6b_Images/61006614d4c56450afce3a6b_Image_23.jpeg,liked,3.820572462,,,,,,,,,,,,,,
,,,,,,,,,,,,,,,,,,,,,,,,999,space,4.2984,0,0,0,0,1,,,,,
,,,,,,,,NAN,,NAN,,0,94,94,94,1,95,Alex,Acc,Participant_Images/61006614d4c56450afce3a6b/61006614d4c56450afce3a6b_Images/61006614d4c56450afce3a6b_Image_4.jpeg,liked,2.455989137,,,,,,,,,,,,,,
,,,,,,space,8.3663,NAN,,NAN,,0,95,95,95,1,96,Alex,Acc,Participant_Images/61006614d4c56450afce3a6b/61006614d4c56450afce3a6b_Images/61006614d4c56450afce3a6b_Image_2.jpeg,liked,3.79605092,,,,,,,,,,,,,,
,,,,,,space,51.0938,NAN,,NAN,,0,96,96,96,1,97,Alex,Acc,Participant_Images/61006614d4c56450afce3a6b/61006614d4c56450afce3a6b_Images/61006614d4c56450afce3a6b_Image_12.jpeg,did not like,3.562416326,,,,,,,,,,,,,,
,,,,,,space,150.1672,NAN,,NAN,,0,97,97,97,1,98,Alex,Acc,Participant_Images/61006614d4c56450afce3a6b/61006614d4c56450afce3a6b_Images/61006614d4c56450afce3a6b_Image_1.jpeg,liked,2.843822497,,,,,,,,,,,,,,
,,,,,,space,10.3955,NAN,,NAN,,0,98,98,98,1,99,Alex,Acc,Participant_Images/61006614d4c56450afce3a6b/61006614d4c56450afce3a6b_Images/61006614d4c56450afce3a6b_Image_5.jpeg,liked,3.546495948,,,,,,,,,,,,,,
,,,,,,,,,,,,,,,,,,,,,,,,999,space,231.343,0,0,0,0,1,,,,,
,,,,,,,,NAN,,NAN,,0,99,99,99,1,100,Alex,Acc,Participant_Images/61006614d4c56450afce3a6b/61006614d4c56450afce3a6b_Images/61006614d4c56450afce3a6b_Image_19.jpeg,liked,1.672012706,,,,,,,,,,,,,,
,,,,,,space,21.7056,NAN,,NAN,,0,100,100,100,1,101,Alex,Acc,Participant_Images/61006614d4c56450afce3a6b/61006614d4c56450afce3a6b_Images/61006614d4c56450afce3a6b_Image_29.jpeg,liked,4.942172136,,,,,,,,,,,,,,
,,,,,,space,5.7418,NAN,,NAN,,0,101,101,101,1,102,Alex,Acc,Participant_Images/61006614d4c56450afce3a6b/61006614d4c56450afce3a6b_Images/61006614d4c56450afce3a6b_Image_10.jpeg,liked,2.50187214,,,,,,,,,,,,,,
,,,,,,space,2.5078,NAN,,NAN,,0,102,102,102,1,103,Alex,Acc,Participant_Images/61006614d4c56450afce3a6b/61006614d4c56450afce3a6b_Images/61006614d4c56450afce3a6b_Image_8.jpeg,liked,2.071164779,,,,,,,,,,,,,,
,,,,,,space,11.9914,NAN,,NAN,,0,103,103,103,1,104,Alex,Acc,Participant_Images/61006614d4c56450afce3a6b/61006614d4c56450afce3a6b_Images/61006614d4c56450afce3a6b_Image_24.jpeg,did not like,5.336503566,,,,,,,,,,,,,,
,,,,,,,,,,,,,,,,,,,,,,,c,0,space,2.9129,0,0,0,0,1,2.4142,,,,
,,,,,,,,NAN,,NAN,,0,104,104,104,1,105,Alex,Acc,Participant_Images/61006614d4c56450afce3a6b/61006614d4c56450afce3a6b_Images/61006614d4c56450afce3a6b_Image_20.jpeg,liked,2.642157193,,,,,,,,,,,,,,
,,,,,,space,8.5068,NAN,,NAN,,0,105,105,105,1,106,Alex,Acc,Participant_Images/61006614d4c56450afce3a6b/61006614d4c56450afce3a6b_Images/61006614d4c56450afce3a6b_Image_28.jpeg,did not like,4.456234322,,,,,,,,,,,,,,
,,,,,,space,1.4532,NAN,,NAN,,0,106,106,106,1,107,Alex,Acc,Participant_Images/61006614d4c56450afce3a6b/61006614d4c56450afce3a6b_Images/61006614d4c56450afce3a6b_Image_26.jpeg,liked,4.438512181,,,,,,,,,,,,,,
,,,,,,space,3.6172,NAN,,NAN,,0,107,107,107,1,108,Alex,Acc,Participant_Images/61006614d4c56450afce3a6b/61006614d4c56450afce3a6b_Images/61006614d4c56450afce3a6b_Image_16.jpeg,liked,2.682944783,,,,,,,,,,,,,,
,,,,,,space,475.526,NAN,,NAN,,0,108,108,108,1,109,Alex,Acc,Participant_Images/61006614d4c56450afce3a6b/61006614d4c56450afce3a6b_Images/61006614d4c56450afce3a6b_Image_27.jpeg,did not like,4.51984296,,,,,,,,,,,,,,
,,,,,,,,,,,,,,,,,,,,,,,c,0,space,1.0964,0,0,0,0,1,2.5043,,,,
,,,,,,,,NAN,,NAN,,0,109,109,109,1,110,Alex,Acc,Participant_Images/61006614d4c56450afce3a6b/61006614d4c56450afce3a6b_Images/61006614d4c56450afce3a6b_Image_15.jpeg,liked,3.195382774,,,,,,,,,,,,,,
,,,,,,space,1.6925,NAN,,NAN,,0,110,110,110,1,111,Alex,Acc,Participant_Images/61006614d4c56450afce3a6b/61006614d4c56450afce3a6b_Images/61006614d4c56450afce3a6b_Image_30.jpeg,did not like,1.779333479,,,,,,,,,,,,,,
,,,,,,space,1.0369,NAN,,NAN,,0,111,111,111,1,112,Alex,Acc,Participant_Images/61006614d4c56450afce3a6b/61006614d4c56450afce3a6b_Images/61006614d4c56450afce3a6b_Image_3.jpeg,liked,4.312468682,,,,,,,,,,,,,,
,,,,,,space,10.9337,NAN,,NAN,,0,112,112,112,1,113,Alex,Acc,Participant_Images/61006614d4c56450afce3a6b/61006614d4c56450afce3a6b_Images/61006614d4c56450afce3a6b_Image_11.jpeg,did not like,4.940433059,,,,,,,,,,,,,,
,,,,,,space,6.9032,NAN,,NAN,,0,113,113,113,1,114,Alex,Acc,Participant_Images/61006614d4c56450afce3a6b/61006614d4c56450afce3a6b_Images/61006614d4c56450afce3a6b_Image_9.jpeg,liked,2.7105123,,,,,,,,,,,,,,
,,,,,,,,,,,,,,,,,,,,,,,s,1,space,1.1612,0,0,0,0,1,1.374,h,1.02,,
,,,,,,,,NAN,,NAN,,0,114,114,114,1,115,Alex,Acc,Participant_Images/61006614d4c56450afce3a6b/61006614d4c56450afce3a6b_Images/61006614d4c56450afce3a6b_Image_25.jpeg,liked,3.602308302,,,,,,,,,,,,,,
,,,,,,space,1.9157,NAN,,NAN,,0,115,115,115,1,116,Alex,Acc,Participant_Images/61006614d4c56450afce3a6b/61006614d4c56450afce3a6b_Images/61006614d4c56450afce3a6b_Image_6.jpeg,liked,4.106391878,,,,,,,,,,,,,,
,,,,,,space,3.1592,NAN,,NAN,,0,116,116,116,1,117,Alex,Acc,Participant_Images/61006614d4c56450afce3a6b/61006614d4c56450afce3a6b_Images/61006614d4c56450afce3a6b_Image_13.jpeg,liked,3.799433026,,,,,,,,,,,,,,
,,,,,,space,1.437,NAN,,NAN,,0,117,117,117,1,118,Alex,Acc,Participant_Images/61006614d4c56450afce3a6b/61006614d4c56450afce3a6b_Images/61006614d4c56450afce3a6b_Image_7.jpeg,did not like,5.246980764,,,,,,,,,,,,,,
,,,,,,space,3.0843,NAN,,NAN,,0,118,118,118,1,119,Alex,Acc,Participant_Images/61006614d4c56450afce3a6b/61006614d4c56450afce3a6b_Images/61006614d4c56450afce3a6b_Image_14.jpeg,liked,3.30081769,,,,,,,,,,,,,,
,,,,,,,,,,,,,,,,,,,,,,,s,1,space,2.4512,0,0,0,0,1,1.5926,h,2.297,,
,,,,,,,,3,,3,,0,119,119,119,1,120,Alex,Acc,Participant_Images/61006614d4c56450afce3a6b/61006614d4c56450afce3a6b_Images/61006614d4c56450afce3a6b_Image_17.jpeg,liked,1.661473164,,,,,,,,,,,,,,
,,,,space,7.221,space,1.3857,NAN,,NAN,,0,120,120,120,1,121,Sam,Rej,Participant_Images/61006614d4c56450afce3a6b/61006614d4c56450afce3a6b_Images/61006614d4c56450afce3a6b_Image_24.jpeg,did not like,3.613205605,,,,,,,,,,,,,,
,,,,,,space,1.0878,NAN,,NAN,,0,121,121,121,1,122,Sam,Rej,Participant_Images/61006614d4c56450afce3a6b/61006614d4c56450afce3a6b_Images/61006614d4c56450afce3a6b_Image_8.jpeg,did not like,4.988446431,,,,,,,,,,,,,,
,,,,,,space,2.6436,NAN,,NAN,,0,122,122,122,1,123,Sam,Rej,Participant_Images/61006614d4c56450afce3a6b/61006614d4c56450afce3a6b_Images/61006614d4c56450afce3a6b_Image_27.jpeg,did not like,3.470791822,,,,,,,,,,,,,,
,,,,,,space,2.1086,NAN,,NAN,,0,123,123,123,1,124,Sam,Rej,Participant_Images/61006614d4c56450afce3a6b/61006614d4c56450afce3a6b_Images/61006614d4c56450afce3a6b_Image_11.jpeg,did not like,3.820572462,,,,,,,,,,,,,,
,,,,,,,,,,,,,,,,,,,,,,,s,1,space,1.5775,0,0,0,0,1,3.1215,l,2.3566,,
,,,,,,,,NAN,,NAN,,0,124,124,124,1,125,Sam,Rej,Participant_Images/61006614d4c56450afce3a6b/61006614d4c56450afce3a6b_Images/61006614d4c56450afce3a6b_Image_16.jpeg,liked,2.455989137,,,,,,,,,,,,,,
,,,,,,space,0.8276,NAN,,NAN,,0,125,125,125,1,126,Sam,Rej,Participant_Images/61006614d4c56450afce3a6b/61006614d4c56450afce3a6b_Images/61006614d4c56450afce3a6b_Image_18.jpeg,did not like,3.79605092,,,,,,,,,,,,,,
,,,,,,space,3.5896,NAN,,NAN,,0,126,126,126,1,127,Sam,Rej,Participant_Images/61006614d4c56450afce3a6b/61006614d4c56450afce3a6b_Images/61006614d4c56450afce3a6b_Image_25.jpeg,liked,3.562416326,,,,,,,,,,,,,,
,,,,,,space,3.3019,NAN,,NAN,,0,127,127,127,1,128,Sam,Rej,Participant_Images/61006614d4c56450afce3a6b/61006614d4c56450afce3a6b_Images/61006614d4c56450afce3a6b_Image_9.jpeg,did not like,2.843822497,,,,,,,,,,,,,,
,,,,,,space,2.1437,NAN,,NAN,,0,128,128,128,1,129,Sam,Rej,Participant_Images/61006614d4c56450afce3a6b/61006614d4c56450afce3a6b_Images/61006614d4c56450afce3a6b_Image_22.jpeg,liked,3.546495948,,,,,,,,,,,,,,
,,,,,,,,,,,,,,,,,,,,,,,s,1,space,1.3094,0,0,0,0,1,1.1517,l,0.7875,,
,,,,,,,,NAN,,NAN,,0,129,129,129,1,130,Sam,Rej,Participant_Images/61006614d4c56450afce3a6b/61006614d4c56450afce3a6b_Images/61006614d4c56450afce3a6b_Image_30.jpeg,liked,1.672012706,,,,,,,,,,,,,,
,,,,,,space,0.6654,NAN,,NAN,,0,130,130,130,1,131,Sam,Rej,Participant_Images/61006614d4c56450afce3a6b/61006614d4c56450afce3a6b_Images/61006614d4c56450afce3a6b_Image_12.jpeg,did not like,4.942172136,,,,,,,,,,,,,,
,,,,,,space,3.1204,NAN,,NAN,,0,131,131,131,1,132,Sam,Rej,Participant_Images/61006614d4c56450afce3a6b/61006614d4c56450afce3a6b_Images/61006614d4c56450afce3a6b_Image_3.jpeg,did not like,2.50187214,,,,,,,,,,,,,,
,,,,,,space,2.1147,NAN,,NAN,,0,132,132,132,1,133,Sam,Rej,Participant_Images/61006614d4c56450afce3a6b/61006614d4c56450afce3a6b_Images/61006614d4c56450afce3a6b_Image_2.jpeg,liked,2.071164779,,,,,,,,,,,,,,
,,,,,,space,10.8157,NAN,,NAN,,0,133,133,133,1,134,Sam,Rej,Participant_Images/61006614d4c56450afce3a6b/61006614d4c56450afce3a6b_Images/61006614d4c56450afce3a6b_Image_5.jpeg,did not like,5.336503566,,,,,,,,,,,,,,
,,,,,,,,,,,,,,,,,,,,,,,s,1,space,7.6439,0,0,0,0,1,1.2869,l,1.9704,,
,,,,,,,,NAN,,NAN,,0,134,134,134,1,135,Sam,Rej,Participant_Images/61006614d4c56450afce3a6b/61006614d4c56450afce3a6b_Images/61006614d4c56450afce3a6b_Image_7.jpeg,liked,2.642157193,,,,,,,,,,,,,,
,,,,,,space,3.47,NAN,,NAN,,0,135,135,135,1,136,Sam,Rej,Participant_Images/61006614d4c56450afce3a6b/61006614d4c56450afce3a6b_Images/61006614d4c56450afce3a6b_Image_10.jpeg,did not like,4.456234322,,,,,,,,,,,,,,
,,,,,,space,3.1157,NAN,,NAN,,0,136,136,136,1,137,Sam,Rej,Participant_Images/61006614d4c56450afce3a6b/61006614d4c56450afce3a6b_Images/61006614d4c56450afce3a6b_Image_29.jpeg,did not like,4.438512181,,,,,,,,,,,,,,
,,,,,,space,7.9024,NAN,,NAN,,0,137,137,137,1,138,Sam,Rej,Participant_Images/61006614d4c56450afce3a6b/61006614d4c56450afce3a6b_Images/61006614d4c56450afce3a6b_Image_20.jpeg,did not like,2.682944783,,,,,,,,,,,,,,
,,,,,,space,1.6347,NAN,,NAN,,0,138,138,138,1,139,Sam,Rej,Participant_Images/61006614d4c56450afce3a6b/61006614d4c56450afce3a6b_Images/61006614d4c56450afce3a6b_Image_4.jpeg,did not like,4.51984296,,,,,,,,,,,,,,
,,,,,,,,,,,,,,,,,,,,,,,s,1,space,2.5746,0,0,0,0,1,0.9501,h,0.6982,,
,,,,,,,,NAN,,NAN,,0,139,139,139,1,140,Sam,Rej,Participant_Images/61006614d4c56450afce3a6b/61006614d4c56450afce3a6b_Images/61006614d4c56450afce3a6b_Image_19.jpeg,did not like,3.195382774,,,,,,,,,,,,,,
,,,,,,space,3.2312,NAN,,NAN,,0,140,140,140,1,141,Sam,Rej,Participant_Images/61006614d4c56450afce3a6b/61006614d4c56450afce3a6b_Images/61006614d4c56450afce3a6b_Image_26.jpeg,did not like,1.779333479,,,,,,,,,,,,,,
,,,,,,space,0.8589,NAN,,NAN,,0,141,141,141,1,142,Sam,Rej,Participant_Images/61006614d4c56450afce3a6b/61006614d4c56450afce3a6b_Images/61006614d4c56450afce3a6b_Image_6.jpeg,liked,4.312468682,,,,,,,,,,,,,,
,,,,,,space,0.9621,NAN,,NAN,,0,142,142,142,1,143,Sam,Rej,Participant_Images/61006614d4c56450afce3a6b/61006614d4c56450afce3a6b_Images/61006614d4c56450afce3a6b_Image_17.jpeg,did not like,4.940433059,,,,,,,,,,,,,,
,,,,,,space,1.5171,NAN,,NAN,,0,143,143,143,1,144,Sam,Rej,Participant_Images/61006614d4c56450afce3a6b/61006614d4c56450afce3a6b_Images/61006614d4c56450afce3a6b_Image_15.jpeg,did not like,2.7105123,,,,,,,,,,,,,,
,,,,,,,,,,,,,,,,,,,,,,,s,1,space,1.3958,0,0,0,0,1,1.6442,h,0.7609,,
,,,,,,,,NAN,,NAN,,0,144,144,144,1,145,Sam,Rej,Participant_Images/61006614d4c56450afce3a6b/61006614d4c56450afce3a6b_Images/61006614d4c56450afce3a6b_Image_13.jpeg,did not like,3.602308302,,,,,,,,,,,,,,
,,,,,,space,1.1996,NAN,,NAN,,0,145,145,145,1,146,Sam,Rej,Participant_Images/61006614d4c56450afce3a6b/61006614d4c56450afce3a6b_Images/61006614d4c56450afce3a6b_Image_1.jpeg,did not like,4.106391878,,,,,,,,,,,,,,
,,,,,,space,1.8738,NAN,,NAN,,0,146,146,146,1,147,Sam,Rej,Participant_Images/61006614d4c56450afce3a6b/61006614d4c56450afce3a6b_Images/61006614d4c56450afce3a6b_Image_21.jpeg,did not like,3.799433026,,,,,,,,,,,,,,
,,,,,,space,0.9363,NAN,,NAN,,0,147,147,147,1,148,Sam,Rej,Participant_Images/61006614d4c56450afce3a6b/61006614d4c56450afce3a6b_Images/61006614d4c56450afce3a6b_Image_28.jpeg,did not like,5.246980764,,,,,,,,,,,,,,
,,,,,,space,5.2354,NAN,,NAN,,0,148,148,148,1,149,Sam,Rej,Participant_Images/61006614d4c56450afce3a6b/61006614d4c56450afce3a6b_Images/61006614d4c56450afce3a6b_Image_23.jpeg,liked,3.30081769,,,,,,,,,,,,,,
,,,,,,,,,,,,,,,,,,,,,,,s,1,space,1.8295,0,0,0,0,1,2.4252,h,1.4805,,
,,,,,,,,4,,3,,0,149,149,149,1,150,Sam,Rej,Participant_Images/61006614d4c56450afce3a6b/61006614d4c56450afce3a6b_Images/61006614d4c56450afce3a6b_Image_14.jpeg,liked,1.661473164,,,,,,,,,,,,,,
,,,,,,,,,,,,,,,,,,,,,,,,,,,,,,,,,,,space,13.8327
