PROLIFIC_ID,endwelcomescreen_keys.keys,endwelcomescreen_keys.rt,endinstructionscreen_keys.keys,endinstructionscreen_keys.rt,endpartnermatch_keys.keys,endpartnermatch_keys.rt,sharenextphoto_key.keys,sharenextphoto_key.rt,salience_rating,key_resp.keys,stress_level,stresslevel_keypress.keys,entiretaskloop.thisRepN,entiretaskloop.thisTrialN,entiretaskloop.thisN,entiretaskloop.thisIndex,entiretaskloop.ran,TrialNumber,Partner,Condition,Photos,Feedback,FeedbackWait,choice_keys.keys,playlottery,resumeafterlottery_keys.keys,resumeafterlottery_keys.rt,lotteryloop.thisRepN,lotteryloop.thisTrialN,lotteryloop.thisN,lotteryloop.thisIndex,lotteryloop.ran,choice_keys.rt,lotteryguess_keys.keys,lotteryguess_keys.rt,end_screen_keys.keys,end_screen_keys.rt
6100652c5329da76a962cdb3,space,14.5799,,,,,,,,,,,,,,,,,,,,,,,,,,,,,,,,,,,
,,,,,,,,,,,,,,,,,,,,,,,,,,,,,,,,,,,,,
,,,space,69.4567,,,,,,,,,,,,,,,,,,,,,,,,,,,,,,,,,
,,,,,space,2.2537,space,1.18,NAN,,NAN,,0,0,0,0,1,1,Charlie,Rej,Participant_Images/6100652c5329da76a962cdb3/6100652c5329da76a962cdb3_Images/6100652c5329da76a962cdb3_Image_23.jpeg,liked,3.613205605,,,,,,,,,,,,,,
,,,,,,,space,1.3163,NAN,,NAN,,0,1,1,1,1,2,Charlie,Rej,Participant_Images/6100652c5329da76a962cdb3/6100652c5329da76a962cdb3_Images/6100652c5329da76a962cdb3_Image_18.jpeg,did not like,4.988446431,,,,,,,,,,,,,,
,,,,,,,space,1.5655,NAN,,NAN,,0,2,2,2,1,3,Charlie,Rej,Participant_Images/6100652c5329da76a962cdb3/6100652c5329da76a962cdb3_Images/6100652c5329da76a962cdb3_Image_16.jpeg,did not like,3.470791822,,,,,,,,,,,,,,
,,,,,,,space,1.0269,NAN,,NAN,,0,3,3,3,1,4,Charlie,Rej,Participant_Images/6100652c5329da76a962cdb3/6100652c5329da76a962cdb3_Images/6100652c5329da76a962cdb3_Image_29.jpeg,did not like,3.820572462,,,,,,,,,,,,,,
,,,,,,,,,,,,,,,,,,,,,,,,,999,space,6.3081,0,0,0,0,1,,,,,
,,,,,,,,,NAN,,NAN,,0,4,4,4,1,5,Charlie,Rej,Participant_Images/6100652c5329da76a962cdb3/6100652c5329da76a962cdb3_Images/6100652c5329da76a962cdb3_Image_22.jpeg,did not like,2.455989137,,,,,,,,,,,,,,
,,,,,,,space,1.9825,NAN,,NAN,,0,5,5,5,1,6,Charlie,Rej,Participant_Images/6100652c5329da76a962cdb3/6100652c5329da76a962cdb3_Images/6100652c5329da76a962cdb3_Image_27.jpeg,did not like,3.79605092,,,,,,,,,,,,,,
,,,,,,,space,1.6842,NAN,,NAN,,0,6,6,6,1,7,Charlie,Rej,Participant_Images/6100652c5329da76a962cdb3/6100652c5329da76a962cdb3_Images/6100652c5329da76a962cdb3_Image_2.jpeg,did not like,3.562416326,,,,,,,,,,,,,,
,,,,,,,space,0.9111,NAN,,NAN,,0,7,7,7,1,8,Charlie,Rej,Participant_Images/6100652c5329da76a962cdb3/6100652c5329da76a962cdb3_Images/6100652c5329da76a962cdb3_Image_12.jpeg,did not like,2.843822497,,,,,,,,,,,,,,
,,,,,,,space,4.5283,NAN,,NAN,,0,8,8,8,1,9,Charlie,Rej,Participant_Images/6100652c5329da76a962cdb3/6100652c5329da76a962cdb3_Images/6100652c5329da76a962cdb3_Image_11.jpeg,did not like,3.546495948,,,,,,,,,,,,,,
,,,,,,,,,,,,,,,,,,,,,,,,s,1,space,0.9953,0,0,0,0,1,3.6464,,,,
,,,,,,,,,NAN,,NAN,,0,9,9,9,1,10,Charlie,Rej,Participant_Images/6100652c5329da76a962cdb3/6100652c5329da76a962cdb3_Images/6100652c5329da76a962cdb3_Image_13.jpeg,did not like,1.672012706,,,,,,,,,,,,,,
,,,,,,,space,0.8437,NAN,,NAN,,0,10,10,10,1,11,Charlie,Rej,Participant_Images/6100652c5329da76a962cdb3/6100652c5329da76a962cdb3_Images/6100652c5329da76a962cdb3_Image_26.jpeg,did not like,4.942172136,,,,,,,,,,,,,,
,,,,,,,space,0.7598,NAN,,NAN,,0,11,11,11,1,12,Charlie,Rej,Participant_Images/6100652c5329da76a962cdb3/6100652c5329da76a962cdb3_Images/6100652c5329da76a962cdb3_Image_10.jpeg,did not like,2.50187214,,,,,,,,,,,,,,
,,,,,,,space,1.0399,NAN,,NAN,,0,12,12,12,1,13,Charlie,Rej,Participant_Images/6100652c5329da76a962cdb3/6100652c5329da76a962cdb3_Images/6100652c5329da76a962cdb3_Image_6.jpeg,liked,2.071164779,,,,,,,,,,,,,,
,,,,,,,space,2.9297,NAN,,NAN,,0,13,13,13,1,14,Charlie,Rej,Participant_Images/6100652c5329da76a962cdb3/6100652c5329da76a962cdb3_Images/6100652c5329da76a962cdb3_Image_8.jpeg,did not like,5.336503566,,,,,,,,,,,,,,
,,,,,,,,,,,,,,,,,,,,,,,,s,1,space,0.795,0,0,0,0,1,2.2176,l,1.5138,,
,,,,,,,,,NAN,,NAN,,0,14,14,14,1,15,Charlie,Rej,Participant_Images/6100652c5329da76a962cdb3/6100652c5329da76a962cdb3_Images/6100652c5329da76a962cdb3_Image_3.jpeg,did not like,2.642157193,,,,,,,,,,,,,,
,,,,,,,space,0.7669,NAN,,NAN,,0,15,15,15,1,16,Charlie,Rej,Participant_Images/6100652c5329da76a962cdb3/6100652c5329da76a962cdb3_Images/6100652c5329da76a962cdb3_Image_24.jpeg,did not like,4.456234322,,,,,,,,,,,,,,
,,,,,,,space,0.7524,NAN,,NAN,,0,16,16,16,1,17,Charlie,Rej,Participant_Images/6100652c5329da76a962cdb3/6100652c5329da76a962cdb3_Images/6100652c5329da76a962cdb3_Image_30.jpeg,did not like,4.438512181,,,,,,,,,,,,,,
,,,,,,,space,0.6225,NAN,,NAN,,0,17,17,17,1,18,Charlie,Rej,Participant_Images/6100652c5329da76a962cdb3/6100652c5329da76a962cdb3_Images/6100652c5329da76a962cdb3_Image_19.jpeg,did not like,2.682944783,,,,,,,,,,,,,,
,,,,,,,space,0.7462,NAN,,NAN,,0,18,18,18,1,19,Charlie,Rej,Participant_Images/6100652c5329da76a962cdb3/6100652c5329da76a962cdb3_Images/6100652c5329da76a962cdb3_Image_15.jpeg,did not like,4.51984296,,,,,,,,,,,,,,
,,,,,,,,,,,,,,,,,,,,,,,,s,1,space,0.5835,0,0,0,0,1,1.8414,h,1.2384,,
,,,,,,,,,NAN,,NAN,,0,19,19,19,1,20,Charlie,Rej,Participant_Images/6100652c5329da76a962cdb3/6100652c5329da76a962cdb3_Images/6100652c5329da76a962cdb3_Image_7.jpeg,did not like,3.195382774,,,,,,,,,,,,,,
,,,,,,,space,0.553,NAN,,NAN,,0,20,20,20,1,21,Charlie,Rej,Participant_Images/6100652c5329da76a962cdb3/6100652c5329da76a962cdb3_Images/6100652c5329da76a962cdb3_Image_17.jpeg,liked,1.779333479,,,,,,,,,,,,,,
,,,,,,,space,0.8535,NAN,,NAN,,0,21,21,21,1,22,Charlie,Rej,Participant_Images/6100652c5329da76a962cdb3/6100652c5329da76a962cdb3_Images/6100652c5329da76a962cdb3_Image_28.jpeg,liked,4.312468682,,,,,,,,,,,,,,
,,,,,,,space,1.6882,NAN,,NAN,,0,22,22,22,1,23,Charlie,Rej,Participant_Images/6100652c5329da76a962cdb3/6100652c5329da76a962cdb3_Images/6100652c5329da76a962cdb3_Image_21.jpeg,did not like,4.940433059,,,,,,,,,,,,,,
,,,,,,,space,0.7057,NAN,,NAN,,0,23,23,23,1,24,Charlie,Rej,Participant_Images/6100652c5329da76a962cdb3/6100652c5329da76a962cdb3_Images/6100652c5329da76a962cdb3_Image_25.jpeg,liked,2.7105123,,,,,,,,,,,,,,
,,,,,,,,,,,,,,,,,,,,,,,,s,1,space,0.6969,0,0,0,0,1,2.2542,l,1.9657,,
,,,,,,,,,NAN,,NAN,,0,24,24,24,1,25,Charlie,Rej,Participant_Images/6100652c5329da76a962cdb3/6100652c5329da76a962cdb3_Images/6100652c5329da76a962cdb3_Image_9.jpeg,did not like,3.602308302,,,,,,,,,,,,,,
,,,,,,,space,0.7202,NAN,,NAN,,0,25,25,25,1,26,Charlie,Rej,Participant_Images/6100652c5329da76a962cdb3/6100652c5329da76a962cdb3_Images/6100652c5329da76a962cdb3_Image_1.jpeg,did not like,4.106391878,,,,,,,,,,,,,,
,,,,,,,space,0.6658,NAN,,NAN,,0,26,26,26,1,27,Charlie,Rej,Participant_Images/6100652c5329da76a962cdb3/6100652c5329da76a962cdb3_Images/6100652c5329da76a962cdb3_Image_20.jpeg,liked,3.799433026,,,,,,,,,,,,,,
,,,,,,,space,9.4776,NAN,,NAN,,0,27,27,27,1,28,Charlie,Rej,Participant_Images/6100652c5329da76a962cdb3/6100652c5329da76a962cdb3_Images/6100652c5329da76a962cdb3_Image_14.jpeg,liked,5.246980764,,,,,,,,,,,,,,
,,,,,,,space,0.7107,NAN,,NAN,,0,28,28,28,1,29,Charlie,Rej,Participant_Images/6100652c5329da76a962cdb3/6100652c5329da76a962cdb3_Images/6100652c5329da76a962cdb3_Image_4.jpeg,liked,3.30081769,,,,,,,,,,,,,,
,,,,,,,,,,,,,,,,,,,,,,,,s,1,space,0.6348,0,0,0,0,1,1.8468,h,1.2047,,
,,,,,,,,,2,,8,,0,29,29,29,1,30,Charlie,Rej,Participant_Images/6100652c5329da76a962cdb3/6100652c5329da76a962cdb3_Images/6100652c5329da76a962cdb3_Image_5.jpeg,liked,1.661473164,,,,,,,,,,,,,,
,,,,,space,1.6418,space,1.4249,NAN,,NAN,,0,30,30,30,1,31,Riley,Neutral,Participant_Images/6100652c5329da76a962cdb3/6100652c5329da76a962cdb3_Images/6100652c5329da76a962cdb3_Image_5.jpeg,did not like,3.613205605,,,,,,,,,,,,,,
,,,,,,,space,0.7501,NAN,,NAN,,0,31,31,31,1,32,Riley,Neutral,Participant_Images/6100652c5329da76a962cdb3/6100652c5329da76a962cdb3_Images/6100652c5329da76a962cdb3_Image_1.jpeg,did not like,4.988446431,,,,,,,,,,,,,,
,,,,,,,space,0.7951,NAN,,NAN,,0,32,32,32,1,33,Riley,Neutral,Participant_Images/6100652c5329da76a962cdb3/6100652c5329da76a962cdb3_Images/6100652c5329da76a962cdb3_Image_20.jpeg,liked,3.470791822,,,,,,,,,,,,,,
,,,,,,,space,0.7811,NAN,,NAN,,0,33,33,33,1,34,Riley,Neutral,Participant_Images/6100652c5329da76a962cdb3/6100652c5329da76a962cdb3_Images/6100652c5329da76a962cdb3_Image_22.jpeg,did not like,3.820572462,,,,,,,,,,,,,,
,,,,,,,,,,,,,,,,,,,,,,,,c,0,space,0.9633,0,0,0,0,1,3.9597,,,,
,,,,,,,,,NAN,,NAN,,0,34,34,34,1,35,Riley,Neutral,Participant_Images/6100652c5329da76a962cdb3/6100652c5329da76a962cdb3_Images/6100652c5329da76a962cdb3_Image_10.jpeg,liked,2.455989137,,,,,,,,,,,,,,
,,,,,,,space,82.1594,NAN,,NAN,,0,35,35,35,1,36,Riley,Neutral,Participant_Images/6100652c5329da76a962cdb3/6100652c5329da76a962cdb3_Images/6100652c5329da76a962cdb3_Image_18.jpeg,liked,3.79605092,,,,,,,,,,,,,,
,,,,,,,space,0.7427,NAN,,NAN,,0,36,36,36,1,37,Riley,Neutral,Participant_Images/6100652c5329da76a962cdb3/6100652c5329da76a962cdb3_Images/6100652c5329da76a962cdb3_Image_27.jpeg,did not like,3.562416326,,,,,,,,,,,,,,
,,,,,,,space,0.8574,NAN,,NAN,,0,37,37,37,1,38,Riley,Neutral,Participant_Images/6100652c5329da76a962cdb3/6100652c5329da76a962cdb3_Images/6100652c5329da76a962cdb3_Image_24.jpeg,liked,2.843822497,,,,,,,,,,,,,,
,,,,,,,space,0.69,NAN,,NAN,,0,38,38,38,1,39,Riley,Neutral,Participant_Images/6100652c5329da76a962cdb3/6100652c5329da76a962cdb3_Images/6100652c5329da76a962cdb3_Image_2.jpeg,did not like,3.546495948,,,,,,,,,,,,,,
,,,,,,,,,,,,,,,,,,,,,,,,s,1,space,0.7011,0,0,0,0,1,2.6856,h,2.0087,,
,,,,,,,,,NAN,,NAN,,0,39,39,39,1,40,Riley,Neutral,Participant_Images/6100652c5329da76a962cdb3/6100652c5329da76a962cdb3_Images/6100652c5329da76a962cdb3_Image_11.jpeg,liked,1.672012706,,,,,,,,,,,,,,
,,,,,,,space,0.7537,NAN,,NAN,,0,40,40,40,1,41,Riley,Neutral,Participant_Images/6100652c5329da76a962cdb3/6100652c5329da76a962cdb3_Images/6100652c5329da76a962cdb3_Image_12.jpeg,did not like,4.942172136,,,,,,,,,,,,,,
,,,,,,,space,0.9038,NAN,,NAN,,0,41,41,41,1,42,Riley,Neutral,Participant_Images/6100652c5329da76a962cdb3/6100652c5329da76a962cdb3_Images/6100652c5329da76a962cdb3_Image_13.jpeg,liked,2.50187214,,,,,,,,,,,,,,
,,,,,,,space,0.6659,NAN,,NAN,,0,42,42,42,1,43,Riley,Neutral,Participant_Images/6100652c5329da76a962cdb3/6100652c5329da76a962cdb3_Images/6100652c5329da76a962cdb3_Image_26.jpeg,did not like,2.071164779,,,,,,,,,,,,,,
,,,,,,,space,0.8126,NAN,,NAN,,0,43,43,43,1,44,Riley,Neutral,Participant_Images/6100652c5329da76a962cdb3/6100652c5329da76a962cdb3_Images/6100652c5329da76a962cdb3_Image_14.jpeg,did not like,5.336503566,,,,,,,,,,,,,,
,,,,,,,,,,,,,,,,,,,,,,,,c,0,space,0.9701,0,0,0,0,1,1.9218,,,,
,,,,,,,,,NAN,,NAN,,0,44,44,44,1,45,Riley,Neutral,Participant_Images/6100652c5329da76a962cdb3/6100652c5329da76a962cdb3_Images/6100652c5329da76a962cdb3_Image_28.jpeg,liked,2.642157193,,,,,,,,,,,,,,
,,,,,,,space,0.7095,NAN,,NAN,,0,45,45,45,1,46,Riley,Neutral,Participant_Images/6100652c5329da76a962cdb3/6100652c5329da76a962cdb3_Images/6100652c5329da76a962cdb3_Image_7.jpeg,did not like,4.456234322,,,,,,,,,,,,,,
,,,,,,,space,0.7684,NAN,,NAN,,0,46,46,46,1,47,Riley,Neutral,Participant_Images/6100652c5329da76a962cdb3/6100652c5329da76a962cdb3_Images/6100652c5329da76a962cdb3_Image_9.jpeg,did not like,4.438512181,,,,,,,,,,,,,,
,,,,,,,space,1.0303,NAN,,NAN,,0,47,47,47,1,48,Riley,Neutral,Participant_Images/6100652c5329da76a962cdb3/6100652c5329da76a962cdb3_Images/6100652c5329da76a962cdb3_Image_30.jpeg,liked,2.682944783,,,,,,,,,,,,,,
,,,,,,,space,0.7053,NAN,,NAN,,0,48,48,48,1,49,Riley,Neutral,Participant_Images/6100652c5329da76a962cdb3/6100652c5329da76a962cdb3_Images/6100652c5329da76a962cdb3_Image_3.jpeg,did not like,4.51984296,,,,,,,,,,,,,,
,,,,,,,,,,,,,,,,,,,,,,,,s,1,space,0.7151,0,0,0,0,1,1.5051,l,0.5785,,
,,,,,,,,,NAN,,NAN,,0,49,49,49,1,50,Riley,Neutral,Participant_Images/6100652c5329da76a962cdb3/6100652c5329da76a962cdb3_Images/6100652c5329da76a962cdb3_Image_8.jpeg,liked,3.195382774,,,,,,,,,,,,,,
,,,,,,,space,1.0538,NAN,,NAN,,0,50,50,50,1,51,Riley,Neutral,Participant_Images/6100652c5329da76a962cdb3/6100652c5329da76a962cdb3_Images/6100652c5329da76a962cdb3_Image_29.jpeg,did not like,1.779333479,,,,,,,,,,,,,,
,,,,,,,space,0.7114,NAN,,NAN,,0,51,51,51,1,52,Riley,Neutral,Participant_Images/6100652c5329da76a962cdb3/6100652c5329da76a962cdb3_Images/6100652c5329da76a962cdb3_Image_6.jpeg,liked,4.312468682,,,,,,,,,,,,,,
,,,,,,,space,0.7921,NAN,,NAN,,0,52,52,52,1,53,Riley,Neutral,Participant_Images/6100652c5329da76a962cdb3/6100652c5329da76a962cdb3_Images/6100652c5329da76a962cdb3_Image_21.jpeg,did not like,4.940433059,,,,,,,,,,,,,,
,,,,,,,space,0.8029,NAN,,NAN,,0,53,53,53,1,54,Riley,Neutral,Participant_Images/6100652c5329da76a962cdb3/6100652c5329da76a962cdb3_Images/6100652c5329da76a962cdb3_Image_16.jpeg,liked,2.7105123,,,,,,,,,,,,,,
,,,,,,,,,,,,,,,,,,,,,,,,s,1,space,0.6946,0,0,0,0,1,1.42,l,0.4696,,
,,,,,,,,,NAN,,NAN,,0,54,54,54,1,55,Riley,Neutral,Participant_Images/6100652c5329da76a962cdb3/6100652c5329da76a962cdb3_Images/6100652c5329da76a962cdb3_Image_25.jpeg,liked,3.602308302,,,,,,,,,,,,,,
,,,,,,,space,5.2121,NAN,,NAN,,0,55,55,55,1,56,Riley,Neutral,Participant_Images/6100652c5329da76a962cdb3/6100652c5329da76a962cdb3_Images/6100652c5329da76a962cdb3_Image_23.jpeg,liked,4.106391878,,,,,,,,,,,,,,
,,,,,,,space,0.6279,NAN,,NAN,,0,56,56,56,1,57,Riley,Neutral,Participant_Images/6100652c5329da76a962cdb3/6100652c5329da76a962cdb3_Images/6100652c5329da76a962cdb3_Image_15.jpeg,did not like,3.799433026,,,,,,,,,,,,,,
,,,,,,,space,0.6235,NAN,,NAN,,0,57,57,57,1,58,Riley,Neutral,Participant_Images/6100652c5329da76a962cdb3/6100652c5329da76a962cdb3_Images/6100652c5329da76a962cdb3_Image_17.jpeg,did not like,5.246980764,,,,,,,,,,,,,,
,,,,,,,space,0.6881,NAN,,NAN,,0,58,58,58,1,59,Riley,Neutral,Participant_Images/6100652c5329da76a962cdb3/6100652c5329da76a962cdb3_Images/6100652c5329da76a962cdb3_Image_19.jpeg,liked,3.30081769,,,,,,,,,,,,,,
,,,,,,,,,,,,,,,,,,,,,,,,s,1,space,0.6614,0,0,0,0,1,1.4678,l,0.4779,,
,,,,,,,,,4,,8,,0,59,59,59,1,60,Riley,Neutral,Participant_Images/6100652c5329da76a962cdb3/6100652c5329da76a962cdb3_Images/6100652c5329da76a962cdb3_Image_4.jpeg,liked,1.661473164,,,,,,,,,,,,,,
,,,,,space,1.4485,space,0.6972,NAN,,NAN,,0,60,60,60,1,61,Alex,Acc,Participant_Images/6100652c5329da76a962cdb3/6100652c5329da76a962cdb3_Images/6100652c5329da76a962cdb3_Image_16.jpeg,liked,3.613205605,,,,,,,,,,,,,,
,,,,,,,space,1.3031,NAN,,NAN,,0,61,61,61,1,62,Alex,Acc,Participant_Images/6100652c5329da76a962cdb3/6100652c5329da76a962cdb3_Images/6100652c5329da76a962cdb3_Image_4.jpeg,liked,4.988446431,,,,,,,,,,,,,,
,,,,,,,space,0.8384,NAN,,NAN,,0,62,62,62,1,63,Alex,Acc,Participant_Images/6100652c5329da76a962cdb3/6100652c5329da76a962cdb3_Images/6100652c5329da76a962cdb3_Image_9.jpeg,did not like,3.470791822,,,,,,,,,,,,,,
,,,,,,,space,0.5112,NAN,,NAN,,0,63,63,63,1,64,Alex,Acc,Participant_Images/6100652c5329da76a962cdb3/6100652c5329da76a962cdb3_Images/6100652c5329da76a962cdb3_Image_29.jpeg,liked,3.820572462,,,,,,,,,,,,,,
,,,,,,,,,,,,,,,,,,,,,,,,s,1,space,1.3527,0,0,0,0,1,1.7491,h,1.4787,,
,,,,,,,,,NAN,,NAN,,0,64,64,64,1,65,Alex,Acc,Participant_Images/6100652c5329da76a962cdb3/6100652c5329da76a962cdb3_Images/6100652c5329da76a962cdb3_Image_14.jpeg,did not like,2.455989137,,,,,,,,,,,,,,
,,,,,,,space,0.7459,NAN,,NAN,,0,65,65,65,1,66,Alex,Acc,Participant_Images/6100652c5329da76a962cdb3/6100652c5329da76a962cdb3_Images/6100652c5329da76a962cdb3_Image_10.jpeg,liked,3.79605092,,,,,,,,,,,,,,
,,,,,,,space,1.7887,NAN,,NAN,,0,66,66,66,1,67,Alex,Acc,Participant_Images/6100652c5329da76a962cdb3/6100652c5329da76a962cdb3_Images/6100652c5329da76a962cdb3_Image_6.jpeg,liked,3.562416326,,,,,,,,,,,,,,
,,,,,,,space,0.9568,NAN,,NAN,,0,67,67,67,1,68,Alex,Acc,Participant_Images/6100652c5329da76a962cdb3/6100652c5329da76a962cdb3_Images/6100652c5329da76a962cdb3_Image_1.jpeg,did not like,2.843822497,,,,,,,,,,,,,,
,,,,,,,space,2.4448,NAN,,NAN,,0,68,68,68,1,69,Alex,Acc,Participant_Images/6100652c5329da76a962cdb3/6100652c5329da76a962cdb3_Images/6100652c5329da76a962cdb3_Image_12.jpeg,liked,3.546495948,,,,,,,,,,,,,,
,,,,,,,,,,,,,,,,,,,,,,,,s,1,space,0.8294,0,0,0,0,1,1.3848,h,0.6222,,
,,,,,,,,,NAN,,NAN,,0,69,69,69,1,70,Alex,Acc,Participant_Images/6100652c5329da76a962cdb3/6100652c5329da76a962cdb3_Images/6100652c5329da76a962cdb3_Image_2.jpeg,did not like,1.672012706,,,,,,,,,,,,,,
,,,,,,,space,0.9259,NAN,,NAN,,0,70,70,70,1,71,Alex,Acc,Participant_Images/6100652c5329da76a962cdb3/6100652c5329da76a962cdb3_Images/6100652c5329da76a962cdb3_Image_26.jpeg,liked,4.942172136,,,,,,,,,,,,,,
,,,,,,,space,0.5458,NAN,,NAN,,0,71,71,71,1,72,Alex,Acc,Participant_Images/6100652c5329da76a962cdb3/6100652c5329da76a962cdb3_Images/6100652c5329da76a962cdb3_Image_7.jpeg,did not like,2.50187214,,,,,,,,,,,,,,
,,,,,,,space,0.647,NAN,,NAN,,0,72,72,72,1,73,Alex,Acc,Participant_Images/6100652c5329da76a962cdb3/6100652c5329da76a962cdb3_Images/6100652c5329da76a962cdb3_Image_8.jpeg,liked,2.071164779,,,,,,,,,,,,,,
,,,,,,,space,0.91,NAN,,NAN,,0,73,73,73,1,74,Alex,Acc,Participant_Images/6100652c5329da76a962cdb3/6100652c5329da76a962cdb3_Images/6100652c5329da76a962cdb3_Image_15.jpeg,liked,5.336503566,,,,,,,,,,,,,,
,,,,,,,,,,,,,,,,,,,,,,,,s,1,space,0.67,0,0,0,0,1,1.418,h,1.1814,,
,,,,,,,,,NAN,,NAN,,0,74,74,74,1,75,Alex,Acc,Participant_Images/6100652c5329da76a962cdb3/6100652c5329da76a962cdb3_Images/6100652c5329da76a962cdb3_Image_20.jpeg,liked,2.642157193,,,,,,,,,,,,,,
,,,,,,,space,0.759,NAN,,NAN,,0,75,75,75,1,76,Alex,Acc,Participant_Images/6100652c5329da76a962cdb3/6100652c5329da76a962cdb3_Images/6100652c5329da76a962cdb3_Image_18.jpeg,liked,4.456234322,,,,,,,,,,,,,,
,,,,,,,space,10.4163,NAN,,NAN,,0,76,76,76,1,77,Alex,Acc,Participant_Images/6100652c5329da76a962cdb3/6100652c5329da76a962cdb3_Images/6100652c5329da76a962cdb3_Image_28.jpeg,liked,4.438512181,,,,,,,,,,,,,,
,,,,,,,space,0.8491,NAN,,NAN,,0,77,77,77,1,78,Alex,Acc,Participant_Images/6100652c5329da76a962cdb3/6100652c5329da76a962cdb3_Images/6100652c5329da76a962cdb3_Image_3.jpeg,did not like,2.682944783,,,,,,,,,,,,,,
,,,,,,,space,0.6013,NAN,,NAN,,0,78,78,78,1,79,Alex,Acc,Participant_Images/6100652c5329da76a962cdb3/6100652c5329da76a962cdb3_Images/6100652c5329da76a962cdb3_Image_5.jpeg,liked,4.51984296,,,,,,,,,,,,,,
,,,,,,,,,,,,,,,,,,,,,,,,s,1,space,0.7727,0,0,0,0,1,1.2993,h,1.1514,,
,,,,,,,,,NAN,,NAN,,0,79,79,79,1,80,Alex,Acc,Participant_Images/6100652c5329da76a962cdb3/6100652c5329da76a962cdb3_Images/6100652c5329da76a962cdb3_Image_23.jpeg,did not like,3.195382774,,,,,,,,,,,,,,
,,,,,,,space,0.6226,NAN,,NAN,,0,80,80,80,1,81,Alex,Acc,Participant_Images/6100652c5329da76a962cdb3/6100652c5329da76a962cdb3_Images/6100652c5329da76a962cdb3_Image_22.jpeg,liked,1.779333479,,,,,,,,,,,,,,
,,,,,,,space,0.6765,NAN,,NAN,,0,81,81,81,1,82,Alex,Acc,Participant_Images/6100652c5329da76a962cdb3/6100652c5329da76a962cdb3_Images/6100652c5329da76a962cdb3_Image_21.jpeg,liked,4.312468682,,,,,,,,,,,,,,
,,,,,,,space,0.8436,NAN,,NAN,,0,82,82,82,1,83,Alex,Acc,Participant_Images/6100652c5329da76a962cdb3/6100652c5329da76a962cdb3_Images/6100652c5329da76a962cdb3_Image_13.jpeg,did not like,4.940433059,,,,,,,,,,,,,,
,,,,,,,space,0.6474,NAN,,NAN,,0,83,83,83,1,84,Alex,Acc,Participant_Images/6100652c5329da76a962cdb3/6100652c5329da76a962cdb3_Images/6100652c5329da76a962cdb3_Image_30.jpeg,liked,2.7105123,,,,,,,,,,,,,,
,,,,,,,,,,,,,,,,,,,,,,,,s,1,space,0.7281,0,0,0,0,1,1.176,h,0.4341,,
,,,,,,,,,NAN,,NAN,,0,84,84,84,1,85,Alex,Acc,Participant_Images/6100652c5329da76a962cdb3/6100652c5329da76a962cdb3_Images/6100652c5329da76a962cdb3_Image_19.jpeg,did not like,3.602308302,,,,,,,,,,,,,,
,,,,,,,space,0.9501,NAN,,NAN,,0,85,85,85,1,86,Alex,Acc,Participant_Images/6100652c5329da76a962cdb3/6100652c5329da76a962cdb3_Images/6100652c5329da76a962cdb3_Image_27.jpeg,liked,4.106391878,,,,,,,,,,,,,,
,,,,,,,space,0.5459,NAN,,NAN,,0,86,86,86,1,87,Alex,Acc,Participant_Images/6100652c5329da76a962cdb3/6100652c5329da76a962cdb3_Images/6100652c5329da76a962cdb3_Image_17.jpeg,liked,3.799433026,,,,,,,,,,,,,,
,,,,,,,space,0.6096,NAN,,NAN,,0,87,87,87,1,88,Alex,Acc,Participant_Images/6100652c5329da76a962cdb3/6100652c5329da76a962cdb3_Images/6100652c5329da76a962cdb3_Image_25.jpeg,liked,5.246980764,,,,,,,,,,,,,,
,,,,,,,space,0.6085,NAN,,NAN,,0,88,88,88,1,89,Alex,Acc,Participant_Images/6100652c5329da76a962cdb3/6100652c5329da76a962cdb3_Images/6100652c5329da76a962cdb3_Image_24.jpeg,liked,3.30081769,,,,,,,,,,,,,,
,,,,,,,,,,,,,,,,,,,,,,,,s,1,space,0.6731,0,0,0,0,1,1.1448,h,2.0941,,
,,,,,,,,,4,,8,,0,89,89,89,1,90,Alex,Acc,Participant_Images/6100652c5329da76a962cdb3/6100652c5329da76a962cdb3_Images/6100652c5329da76a962cdb3_Image_11.jpeg,liked,1.661473164,,,,,,,,,,,,,,
,,,,,space,1.5899,space,1.4035,NAN,,NAN,,0,90,90,90,1,91,Taylor,Acc,Participant_Images/6100652c5329da76a962cdb3/6100652c5329da76a962cdb3_Images/6100652c5329da76a962cdb3_Image_24.jpeg,liked,3.613205605,,,,,,,,,,,,,,
,,,,,,,space,0.7408,NAN,,NAN,,0,91,91,91,1,92,Taylor,Acc,Participant_Images/6100652c5329da76a962cdb3/6100652c5329da76a962cdb3_Images/6100652c5329da76a962cdb3_Image_2.jpeg,did not like,4.988446431,,,,,,,,,,,,,,
,,,,,,,space,0.6406,NAN,,NAN,,0,92,92,92,1,93,Taylor,Acc,Participant_Images/6100652c5329da76a962cdb3/6100652c5329da76a962cdb3_Images/6100652c5329da76a962cdb3_Image_15.jpeg,liked,3.470791822,,,,,,,,,,,,,,
,,,,,,,space,0.5715,NAN,,NAN,,0,93,93,93,1,94,Taylor,Acc,Participant_Images/6100652c5329da76a962cdb3/6100652c5329da76a962cdb3_Images/6100652c5329da76a962cdb3_Image_10.jpeg,liked,3.820572462,,,,,,,,,,,,,,
,,,,,,,,,,,,,,,,,,,,,,,,c,0,space,0.7722,0,0,0,0,1,2.0222,,,,
,,,,,,,,,NAN,,NAN,,0,94,94,94,1,95,Taylor,Acc,Participant_Images/6100652c5329da76a962cdb3/6100652c5329da76a962cdb3_Images/6100652c5329da76a962cdb3_Image_17.jpeg,liked,2.455989137,,,,,,,,,,,,,,
,,,,,,,space,0.4465,NAN,,NAN,,0,95,95,95,1,96,Taylor,Acc,Participant_Images/6100652c5329da76a962cdb3/6100652c5329da76a962cdb3_Images/6100652c5329da76a962cdb3_Image_30.jpeg,liked,3.79605092,,,,,,,,,,,,,,
,,,,,,,space,6.7691,NAN,,NAN,,0,96,96,96,1,97,Taylor,Acc,Participant_Images/6100652c5329da76a962cdb3/6100652c5329da76a962cdb3_Images/6100652c5329da76a962cdb3_Image_12.jpeg,did not like,3.562416326,,,,,,,,,,,,,,
,,,,,,,space,1.1606,NAN,,NAN,,0,97,97,97,1,98,Taylor,Acc,Participant_Images/6100652c5329da76a962cdb3/6100652c5329da76a962cdb3_Images/6100652c5329da76a962cdb3_Image_11.jpeg,liked,2.843822497,,,,,,,,,,,,,,
,,,,,,,space,0.5443,NAN,,NAN,,0,98,98,98,1,99,Taylor,Acc,Participant_Images/6100652c5329da76a962cdb3/6100652c5329da76a962cdb3_Images/6100652c5329da76a962cdb3_Image_28.jpeg,liked,3.546495948,,,,,,,,,,,,,,
,,,,,,,,,,,,,,,,,,,,,,,,c,0,space,0.7675,0,0,0,0,1,1.1636,,,,
,,,,,,,,,NAN,,NAN,,0,99,99,99,1,100,Taylor,Acc,Participant_Images/6100652c5329da76a962cdb3/6100652c5329da76a962cdb3_Images/6100652c5329da76a962cdb3_Image_6.jpeg,liked,1.672012706,,,,,,,,,,,,,,
,,,,,,,space,0.5027,NAN,,NAN,,0,100,100,100,1,101,Taylor,Acc,Participant_Images/6100652c5329da76a962cdb3/6100652c5329da76a962cdb3_Images/6100652c5329da76a962cdb3_Image_18.jpeg,liked,4.942172136,,,,,,,,,,,,,,
,,,,,,,space,0.5305,NAN,,NAN,,0,101,101,101,1,102,Taylor,Acc,Participant_Images/6100652c5329da76a962cdb3/6100652c5329da76a962cdb3_Images/6100652c5329da76a962cdb3_Image_9.jpeg,did not like,2.50187214,,,,,,,,,,,,,,
,,,,,,,space,0.4232,NAN,,NAN,,0,102,102,102,1,103,Taylor,Acc,Participant_Images/6100652c5329da76a962cdb3/6100652c5329da76a962cdb3_Images/6100652c5329da76a962cdb3_Image_1.jpeg,liked,2.071164779,,,,,,,,,,,,,,
,,,,,,,space,0.5585,NAN,,NAN,,0,103,103,103,1,104,Taylor,Acc,Participant_Images/6100652c5329da76a962cdb3/6100652c5329da76a962cdb3_Images/6100652c5329da76a962cdb3_Image_8.jpeg,liked,5.336503566,,,,,,,,,,,,,,
,,,,,,,,,,,,,,,,,,,,,,,,s,1,space,0.7453,0,0,0,0,1,1.5131,l,0.4134,,
,,,,,,,,,NAN,,NAN,,0,104,104,104,1,105,Taylor,Acc,Participant_Images/6100652c5329da76a962cdb3/6100652c5329da76a962cdb3_Images/6100652c5329da76a962cdb3_Image_22.jpeg,did not like,2.642157193,,,,,,,,,,,,,,
,,,,,,,space,0.9376,NAN,,NAN,,0,105,105,105,1,106,Taylor,Acc,Participant_Images/6100652c5329da76a962cdb3/6100652c5329da76a962cdb3_Images/6100652c5329da76a962cdb3_Image_20.jpeg,liked,4.456234322,,,,,,,,,,,,,,
,,,,,,,space,0.6026,NAN,,NAN,,0,106,106,106,1,107,Taylor,Acc,Participant_Images/6100652c5329da76a962cdb3/6100652c5329da76a962cdb3_Images/6100652c5329da76a962cdb3_Image_23.jpeg,liked,4.438512181,,,,,,,,,,,,,,
,,,,,,,space,0.57,NAN,,NAN,,0,107,107,107,1,108,Taylor,Acc,Participant_Images/6100652c5329da76a962cdb3/6100652c5329da76a962cdb3_Images/6100652c5329da76a962cdb3_Image_13.jpeg,liked,2.682944783,,,,,,,,,,,,,,
,,,,,,,space,0.3468,NAN,,NAN,,0,108,108,108,1,109,Taylor,Acc,Participant_Images/6100652c5329da76a962cdb3/6100652c5329da76a962cdb3_Images/6100652c5329da76a962cdb3_Image_5.jpeg,did not like,4.51984296,,,,,,,,,,,,,,
,,,,,,,,,,,,,,,,,,,,,,,,c,0,space,0.7499,0,0,0,0,1,2.1131,,,,
,,,,,,,,,NAN,,NAN,,0,109,109,109,1,110,Taylor,Acc,Participant_Images/6100652c5329da76a962cdb3/6100652c5329da76a962cdb3_Images/6100652c5329da76a962cdb3_Image_27.jpeg,did not like,3.195382774,,,,,,,,,,,,,,
,,,,,,,space,0.8096,NAN,,NAN,,0,110,110,110,1,111,Taylor,Acc,Participant_Images/6100652c5329da76a962cdb3/6100652c5329da76a962cdb3_Images/6100652c5329da76a962cdb3_Image_16.jpeg,did not like,1.779333479,,,,,,,,,,,,,,
,,,,,,,space,0.4144,NAN,,NAN,,0,111,111,111,1,112,Taylor,Acc,Participant_Images/6100652c5329da76a962cdb3/6100652c5329da76a962cdb3_Images/6100652c5329da76a962cdb3_Image_14.jpeg,did not like,4.312468682,,,,,,,,,,,,,,
,,,,,,,space,0.4729,NAN,,NAN,,0,112,112,112,1,113,Taylor,Acc,Participant_Images/6100652c5329da76a962cdb3/6100652c5329da76a962cdb3_Images/6100652c5329da76a962cdb3_Image_29.jpeg,liked,4.940433059,,,,,,,,,,,,,,
,,,,,,,space,0.6265,NAN,,NAN,,0,113,113,113,1,114,Taylor,Acc,Participant_Images/6100652c5329da76a962cdb3/6100652c5329da76a962cdb3_Images/6100652c5329da76a962cdb3_Image_19.jpeg,liked,2.7105123,,,,,,,,,,,,,,
,,,,,,,,,,,,,,,,,,,,,,,,s,1,space,0.7242,0,0,0,0,1,1.5975,l,0.3279,,
,,,,,,,,,NAN,,NAN,,0,114,114,114,1,115,Taylor,Acc,Participant_Images/6100652c5329da76a962cdb3/6100652c5329da76a962cdb3_Images/6100652c5329da76a962cdb3_Image_25.jpeg,liked,3.602308302,,,,,,,,,,,,,,
,,,,,,,space,0.6525,NAN,,NAN,,0,115,115,115,1,116,Taylor,Acc,Participant_Images/6100652c5329da76a962cdb3/6100652c5329da76a962cdb3_Images/6100652c5329da76a962cdb3_Image_4.jpeg,liked,4.106391878,,,,,,,,,,,,,,
,,,,,,,space,0.4916,NAN,,NAN,,0,116,116,116,1,117,Taylor,Acc,Participant_Images/6100652c5329da76a962cdb3/6100652c5329da76a962cdb3_Images/6100652c5329da76a962cdb3_Image_7.jpeg,liked,3.799433026,,,,,,,,,,,,,,
,,,,,,,space,0.592,NAN,,NAN,,0,117,117,117,1,118,Taylor,Acc,Participant_Images/6100652c5329da76a962cdb3/6100652c5329da76a962cdb3_Images/6100652c5329da76a962cdb3_Image_21.jpeg,liked,5.246980764,,,,,,,,,,,,,,
,,,,,,,space,0.6097,NAN,,NAN,,0,118,118,118,1,119,Taylor,Acc,Participant_Images/6100652c5329da76a962cdb3/6100652c5329da76a962cdb3_Images/6100652c5329da76a962cdb3_Image_3.jpeg,did not like,3.30081769,,,,,,,,,,,,,,
,,,,,,,,,,,,,,,,,,,,,,,,c,0,space,0.6644,0,0,0,0,1,1.5522,,,,
,,,,,,,,,4,,8,,0,119,119,119,1,120,Taylor,Acc,Participant_Images/6100652c5329da76a962cdb3/6100652c5329da76a962cdb3_Images/6100652c5329da76a962cdb3_Image_26.jpeg,liked,1.661473164,,,,,,,,,,,,,,
,,,,,space,1.4248,space,0.7625,NAN,,NAN,,0,120,120,120,1,121,Sam,Rej,Participant_Images/6100652c5329da76a962cdb3/6100652c5329da76a962cdb3_Images/6100652c5329da76a962cdb3_Image_9.jpeg,did not like,3.613205605,,,,,,,,,,,,,,
,,,,,,,space,0.6773,NAN,,NAN,,0,121,121,121,1,122,Sam,Rej,Participant_Images/6100652c5329da76a962cdb3/6100652c5329da76a962cdb3_Images/6100652c5329da76a962cdb3_Image_14.jpeg,did not like,4.988446431,,,,,,,,,,,,,,
,,,,,,,space,0.6134,NAN,,NAN,,0,122,122,122,1,123,Sam,Rej,Participant_Images/6100652c5329da76a962cdb3/6100652c5329da76a962cdb3_Images/6100652c5329da76a962cdb3_Image_19.jpeg,did not like,3.470791822,,,,,,,,,,,,,,
,,,,,,,space,0.5775,NAN,,NAN,,0,123,123,123,1,124,Sam,Rej,Participant_Images/6100652c5329da76a962cdb3/6100652c5329da76a962cdb3_Images/6100652c5329da76a962cdb3_Image_25.jpeg,liked,3.820572462,,,,,,,,,,,,,,
,,,,,,,,,,,,,,,,,,,,,,,,s,1,space,0.6736,0,0,0,0,1,1.5282,h,0.4227,,
,,,,,,,,,NAN,,NAN,,0,124,124,124,1,125,Sam,Rej,Participant_Images/6100652c5329da76a962cdb3/6100652c5329da76a962cdb3_Images/6100652c5329da76a962cdb3_Image_1.jpeg,did not like,2.455989137,,,,,,,,,,,,,,
,,,,,,,space,0.6013,NAN,,NAN,,0,125,125,125,1,126,Sam,Rej,Participant_Images/6100652c5329da76a962cdb3/6100652c5329da76a962cdb3_Images/6100652c5329da76a962cdb3_Image_26.jpeg,did not like,3.79605092,,,,,,,,,,,,,,
,,,,,,,space,1.009,NAN,,NAN,,0,126,126,126,1,127,Sam,Rej,Participant_Images/6100652c5329da76a962cdb3/6100652c5329da76a962cdb3_Images/6100652c5329da76a962cdb3_Image_28.jpeg,did not like,3.562416326,,,,,,,,,,,,,,
,,,,,,,space,0.7604,NAN,,NAN,,0,127,127,127,1,128,Sam,Rej,Participant_Images/6100652c5329da76a962cdb3/6100652c5329da76a962cdb3_Images/6100652c5329da76a962cdb3_Image_21.jpeg,did not like,2.843822497,,,,,,,,,,,,,,
,,,,,,,space,0.8715,NAN,,NAN,,0,128,128,128,1,129,Sam,Rej,Participant_Images/6100652c5329da76a962cdb3/6100652c5329da76a962cdb3_Images/6100652c5329da76a962cdb3_Image_12.jpeg,liked,3.546495948,,,,,,,,,,,,,,
,,,,,,,,,,,,,,,,,,,,,,,,s,1,space,0.695,0,0,0,0,1,0.5779,h,0.3014,,
,,,,,,,,,NAN,,NAN,,0,129,129,129,1,130,Sam,Rej,Participant_Images/6100652c5329da76a962cdb3/6100652c5329da76a962cdb3_Images/6100652c5329da76a962cdb3_Image_13.jpeg,did not like,1.672012706,,,,,,,,,,,,,,
,,,,,,,space,0.9035,NAN,,NAN,,0,130,130,130,1,131,Sam,Rej,Participant_Images/6100652c5329da76a962cdb3/6100652c5329da76a962cdb3_Images/6100652c5329da76a962cdb3_Image_3.jpeg,did not like,4.942172136,,,,,,,,,,,,,,
,,,,,,,space,0.8453,NAN,,NAN,,0,131,131,131,1,132,Sam,Rej,Participant_Images/6100652c5329da76a962cdb3/6100652c5329da76a962cdb3_Images/6100652c5329da76a962cdb3_Image_17.jpeg,did not like,2.50187214,,,,,,,,,,,,,,
,,,,,,,space,0.6736,NAN,,NAN,,0,132,132,132,1,133,Sam,Rej,Participant_Images/6100652c5329da76a962cdb3/6100652c5329da76a962cdb3_Images/6100652c5329da76a962cdb3_Image_27.jpeg,liked,2.071164779,,,,,,,,,,,,,,
,,,,,,,space,0.9485,NAN,,NAN,,0,133,133,133,1,134,Sam,Rej,Participant_Images/6100652c5329da76a962cdb3/6100652c5329da76a962cdb3_Images/6100652c5329da76a962cdb3_Image_10.jpeg,did not like,5.336503566,,,,,,,,,,,,,,
,,,,,,,,,,,,,,,,,,,,,,,,s,1,space,0.5881,0,0,0,0,1,1.5116,l,1.2197,,
,,,,,,,,,NAN,,NAN,,0,134,134,134,1,135,Sam,Rej,Participant_Images/6100652c5329da76a962cdb3/6100652c5329da76a962cdb3_Images/6100652c5329da76a962cdb3_Image_23.jpeg,did not like,2.642157193,,,,,,,,,,,,,,
,,,,,,,space,0.6458,NAN,,NAN,,0,135,135,135,1,136,Sam,Rej,Participant_Images/6100652c5329da76a962cdb3/6100652c5329da76a962cdb3_Images/6100652c5329da76a962cdb3_Image_4.jpeg,did not like,4.456234322,,,,,,,,,,,,,,
,,,,,,,space,0.497,NAN,,NAN,,0,136,136,136,1,137,Sam,Rej,Participant_Images/6100652c5329da76a962cdb3/6100652c5329da76a962cdb3_Images/6100652c5329da76a962cdb3_Image_7.jpeg,did not like,4.438512181,,,,,,,,,,,,,,
,,,,,,,space,0.6073,NAN,,NAN,,0,137,137,137,1,138,Sam,Rej,Participant_Images/6100652c5329da76a962cdb3/6100652c5329da76a962cdb3_Images/6100652c5329da76a962cdb3_Image_5.jpeg,liked,2.682944783,,,,,,,,,,,,,,
,,,,,,,space,0.8358,NAN,,NAN,,0,138,138,138,1,139,Sam,Rej,Participant_Images/6100652c5329da76a962cdb3/6100652c5329da76a962cdb3_Images/6100652c5329da76a962cdb3_Image_20.jpeg,did not like,4.51984296,,,,,,,,,,,,,,
,,,,,,,,,,,,,,,,,,,,,,,,s,1,space,0.4714,0,0,0,0,1,1.4728,h,0.3735,,
,,,,,,,,,NAN,,NAN,,0,139,139,139,1,140,Sam,Rej,Participant_Images/6100652c5329da76a962cdb3/6100652c5329da76a962cdb3_Images/6100652c5329da76a962cdb3_Image_2.jpeg,liked,3.195382774,,,,,,,,,,,,,,
,,,,,,,space,1.0562,NAN,,NAN,,0,140,140,140,1,141,Sam,Rej,Participant_Images/6100652c5329da76a962cdb3/6100652c5329da76a962cdb3_Images/6100652c5329da76a962cdb3_Image_15.jpeg,did not like,1.779333479,,,,,,,,,,,,,,
,,,,,,,space,0.5718,NAN,,NAN,,0,141,141,141,1,142,Sam,Rej,Participant_Images/6100652c5329da76a962cdb3/6100652c5329da76a962cdb3_Images/6100652c5329da76a962cdb3_Image_24.jpeg,liked,4.312468682,,,,,,,,,,,,,,
,,,,,,,space,0.5838,NAN,,NAN,,0,142,142,142,1,143,Sam,Rej,Participant_Images/6100652c5329da76a962cdb3/6100652c5329da76a962cdb3_Images/6100652c5329da76a962cdb3_Image_6.jpeg,liked,4.940433059,,,,,,,,,,,,,,
,,,,,,,space,0.6558,NAN,,NAN,,0,143,143,143,1,144,Sam,Rej,Participant_Images/6100652c5329da76a962cdb3/6100652c5329da76a962cdb3_Images/6100652c5329da76a962cdb3_Image_18.jpeg,liked,2.7105123,,,,,,,,,,,,,,
,,,,,,,,,,,,,,,,,,,,,,,,s,1,space,0.7469,0,0,0,0,1,1.8231,h,0.4681,,
,,,,,,,,,NAN,,NAN,,0,144,144,144,1,145,Sam,Rej,Participant_Images/6100652c5329da76a962cdb3/6100652c5329da76a962cdb3_Images/6100652c5329da76a962cdb3_Image_29.jpeg,did not like,3.602308302,,,,,,,,,,,,,,
,,,,,,,space,0.7128,NAN,,NAN,,0,145,145,145,1,146,Sam,Rej,Participant_Images/6100652c5329da76a962cdb3/6100652c5329da76a962cdb3_Images/6100652c5329da76a962cdb3_Image_16.jpeg,did not like,4.106391878,,,,,,,,,,,,,,
,,,,,,,space,1.2226,NAN,,NAN,,0,146,146,146,1,147,Sam,Rej,Participant_Images/6100652c5329da76a962cdb3/6100652c5329da76a962cdb3_Images/6100652c5329da76a962cdb3_Image_30.jpeg,did not like,3.799433026,,,,,,,,,,,,,,
,,,,,,,space,0.7111,NAN,,NAN,,0,147,147,147,1,148,Sam,Rej,Participant_Images/6100652c5329da76a962cdb3/6100652c5329da76a962cdb3_Images/6100652c5329da76a962cdb3_Image_22.jpeg,did not like,5.246980764,,,,,,,,,,,,,,
,,,,,,,space,0.6242,NAN,,NAN,,0,148,148,148,1,149,Sam,Rej,Participant_Images/6100652c5329da76a962cdb3/6100652c5329da76a962cdb3_Images/6100652c5329da76a962cdb3_Image_11.jpeg,liked,3.30081769,,,,,,,,,,,,,,
,,,,,,,,,,,,,,,,,,,,,,,,s,1,space,0.532,0,0,0,0,1,1.7687,h,1.0029,,
,,,,,,,,,4,,8,,0,149,149,149,1,150,Sam,Rej,Participant_Images/6100652c5329da76a962cdb3/6100652c5329da76a962cdb3_Images/6100652c5329da76a962cdb3_Image_8.jpeg,did not like,1.661473164,,,,,,,,,,,,,,
,,,,,,,,,,,,,,,,,,,,,,,,,,,,,,,,,,,,space,2.2233
