PROLIFIC_ID,endwelcomescreen_keys.keys,endwelcomescreen_keys.rt,endinstructionscreen_keys.keys,endinstructionscreen_keys.rt,endpartnermatch_keys.keys,endpartnermatch_keys.rt,sharenextphoto_key.keys,sharenextphoto_key.rt,salience_rating,key_resp.keys,stress_level,stresslevel_keypress.keys,entiretaskloop.thisRepN,entiretaskloop.thisTrialN,entiretaskloop.thisN,entiretaskloop.thisIndex,entiretaskloop.ran,TrialNumber,Partner,Condition,Photos,Feedback,FeedbackWait,choice_keys.keys,playlottery,resumeafterlottery_keys.keys,resumeafterlottery_keys.rt,lotteryloop.thisRepN,lotteryloop.thisTrialN,lotteryloop.thisN,lotteryloop.thisIndex,lotteryloop.ran,choice_keys.rt,lotteryguess_keys.keys,lotteryguess_keys.rt,end_screen_keys.keys,end_screen_keys.rt
6107f902de5549cbdf72cbe1,space,28.1656,,,,,,,,,,,,,,,,,,,,,,,,,,,,,,,,,,,
,,,,,,,,,,,,,,,,,,,,,,,,,,,,,,,,,,,,,
,,,space,29.8334,,,,,,,,,,,,,,,,,,,,,,,,,,,,,,,,,
,,,,,space,3.5484,space,1.7004,NAN,,NAN,,0,0,0,0,1,1,Alex,Rej,Participant_Images/6107f902de5549cbdf72cbe1/6107f902de5549cbdf72cbe1_Images/6107f902de5549cbdf72cbe1_Image_1.jpeg,did not like,3.613205605,,,,,,,,,,,,,,
,,,,,,,space,1.042,NAN,,NAN,,0,1,1,1,1,2,Alex,Rej,Participant_Images/6107f902de5549cbdf72cbe1/6107f902de5549cbdf72cbe1_Images/6107f902de5549cbdf72cbe1_Image_2.jpeg,liked,4.988446431,,,,,,,,,,,,,,
,,,,,,,space,0.8208,NAN,,NAN,,0,2,2,2,1,3,Alex,Rej,Participant_Images/6107f902de5549cbdf72cbe1/6107f902de5549cbdf72cbe1_Images/6107f902de5549cbdf72cbe1_Image_21.jpeg,did not like,3.470791822,,,,,,,,,,,,,,
,,,,,,,space,0.7705,NAN,,NAN,,0,3,3,3,1,4,Alex,Rej,Participant_Images/6107f902de5549cbdf72cbe1/6107f902de5549cbdf72cbe1_Images/6107f902de5549cbdf72cbe1_Image_5.jpeg,did not like,3.820572462,,,,,,,,,,,,,,
,,,,,,,,,,,,,,,,,,,,,,,,,999,space,3.8512,0,0,0,0,1,,,,,
,,,,,,,,,NAN,,NAN,,0,4,4,4,1,5,Alex,Rej,Participant_Images/6107f902de5549cbdf72cbe1/6107f902de5549cbdf72cbe1_Images/6107f902de5549cbdf72cbe1_Image_19.jpeg,liked,2.455989137,,,,,,,,,,,,,,
,,,,,,,space,0.046,NAN,,NAN,,0,5,5,5,1,6,Alex,Rej,Participant_Images/6107f902de5549cbdf72cbe1/6107f902de5549cbdf72cbe1_Images/6107f902de5549cbdf72cbe1_Image_25.jpeg,did not like,3.79605092,,,,,,,,,,,,,,
,,,,,,,space,0.6612,NAN,,NAN,,0,6,6,6,1,7,Alex,Rej,Participant_Images/6107f902de5549cbdf72cbe1/6107f902de5549cbdf72cbe1_Images/6107f902de5549cbdf72cbe1_Image_29.jpeg,did not like,3.562416326,,,,,,,,,,,,,,
,,,,,,,space,0.9125,NAN,,NAN,,0,7,7,7,1,8,Alex,Rej,Participant_Images/6107f902de5549cbdf72cbe1/6107f902de5549cbdf72cbe1_Images/6107f902de5549cbdf72cbe1_Image_7.jpeg,liked,2.843822497,,,,,,,,,,,,,,
,,,,,,,space,0.5495,NAN,,NAN,,0,8,8,8,1,9,Alex,Rej,Participant_Images/6107f902de5549cbdf72cbe1/6107f902de5549cbdf72cbe1_Images/6107f902de5549cbdf72cbe1_Image_8.jpeg,did not like,3.546495948,,,,,,,,,,,,,,
,,,,,,,,,,,,,,,,,,,,,,,,s,1,space,1.0022,0,0,0,0,1,1.0691,h,2.7359,,
,,,,,,,,,NAN,,NAN,,0,9,9,9,1,10,Alex,Rej,Participant_Images/6107f902de5549cbdf72cbe1/6107f902de5549cbdf72cbe1_Images/6107f902de5549cbdf72cbe1_Image_20.jpeg,liked,1.672012706,,,,,,,,,,,,,,
,,,,,,,space,1.8624,NAN,,NAN,,0,10,10,10,1,11,Alex,Rej,Participant_Images/6107f902de5549cbdf72cbe1/6107f902de5549cbdf72cbe1_Images/6107f902de5549cbdf72cbe1_Image_13.jpeg,did not like,4.942172136,,,,,,,,,,,,,,
,,,,,,,space,0.6081,NAN,,NAN,,0,11,11,11,1,12,Alex,Rej,Participant_Images/6107f902de5549cbdf72cbe1/6107f902de5549cbdf72cbe1_Images/6107f902de5549cbdf72cbe1_Image_16.jpeg,did not like,2.50187214,,,,,,,,,,,,,,
,,,,,,,space,0.5182,NAN,,NAN,,0,12,12,12,1,13,Alex,Rej,Participant_Images/6107f902de5549cbdf72cbe1/6107f902de5549cbdf72cbe1_Images/6107f902de5549cbdf72cbe1_Image_3.jpeg,did not like,2.071164779,,,,,,,,,,,,,,
,,,,,,,space,0.6175,NAN,,NAN,,0,13,13,13,1,14,Alex,Rej,Participant_Images/6107f902de5549cbdf72cbe1/6107f902de5549cbdf72cbe1_Images/6107f902de5549cbdf72cbe1_Image_6.jpeg,did not like,5.336503566,,,,,,,,,,,,,,
,,,,,,,,,,,,,,,,,,,,,,,,s,1,space,0.7505,0,0,0,0,1,0.8589,h,1.3531,,
,,,,,,,,,NAN,,NAN,,0,14,14,14,1,15,Alex,Rej,Participant_Images/6107f902de5549cbdf72cbe1/6107f902de5549cbdf72cbe1_Images/6107f902de5549cbdf72cbe1_Image_22.jpeg,did not like,2.642157193,,,,,,,,,,,,,,
,,,,,,,space,1.1665,NAN,,NAN,,0,15,15,15,1,16,Alex,Rej,Participant_Images/6107f902de5549cbdf72cbe1/6107f902de5549cbdf72cbe1_Images/6107f902de5549cbdf72cbe1_Image_15.jpeg,did not like,4.456234322,,,,,,,,,,,,,,
,,,,,,,space,11.5811,NAN,,NAN,,0,16,16,16,1,17,Alex,Rej,Participant_Images/6107f902de5549cbdf72cbe1/6107f902de5549cbdf72cbe1_Images/6107f902de5549cbdf72cbe1_Image_17.jpeg,liked,4.438512181,,,,,,,,,,,,,,
,,,,,,,space,0.602,NAN,,NAN,,0,17,17,17,1,18,Alex,Rej,Participant_Images/6107f902de5549cbdf72cbe1/6107f902de5549cbdf72cbe1_Images/6107f902de5549cbdf72cbe1_Image_24.jpeg,did not like,2.682944783,,,,,,,,,,,,,,
,,,,,,,space,0.2127,NAN,,NAN,,0,18,18,18,1,19,Alex,Rej,Participant_Images/6107f902de5549cbdf72cbe1/6107f902de5549cbdf72cbe1_Images/6107f902de5549cbdf72cbe1_Image_27.jpeg,did not like,4.51984296,,,,,,,,,,,,,,
,,,,,,,,,,,,,,,,,,,,,,,,s,1,space,0.4515,0,0,0,0,1,1.2028,l,0.2631,,
,,,,,,,,,NAN,,NAN,,0,19,19,19,1,20,Alex,Rej,Participant_Images/6107f902de5549cbdf72cbe1/6107f902de5549cbdf72cbe1_Images/6107f902de5549cbdf72cbe1_Image_18.jpeg,did not like,3.195382774,,,,,,,,,,,,,,
,,,,,,,space,1.1301,NAN,,NAN,,0,20,20,20,1,21,Alex,Rej,Participant_Images/6107f902de5549cbdf72cbe1/6107f902de5549cbdf72cbe1_Images/6107f902de5549cbdf72cbe1_Image_14.jpeg,did not like,1.779333479,,,,,,,,,,,,,,
,,,,,,,space,1.8997,NAN,,NAN,,0,21,21,21,1,22,Alex,Rej,Participant_Images/6107f902de5549cbdf72cbe1/6107f902de5549cbdf72cbe1_Images/6107f902de5549cbdf72cbe1_Image_10.jpeg,liked,4.312468682,,,,,,,,,,,,,,
,,,,,,,space,1.1582,NAN,,NAN,,0,22,22,22,1,23,Alex,Rej,Participant_Images/6107f902de5549cbdf72cbe1/6107f902de5549cbdf72cbe1_Images/6107f902de5549cbdf72cbe1_Image_26.jpeg,liked,4.940433059,,,,,,,,,,,,,,
,,,,,,,space,2.7466,NAN,,NAN,,0,23,23,23,1,24,Alex,Rej,Participant_Images/6107f902de5549cbdf72cbe1/6107f902de5549cbdf72cbe1_Images/6107f902de5549cbdf72cbe1_Image_12.jpeg,did not like,2.7105123,,,,,,,,,,,,,,
,,,,,,,,,,,,,,,,,,,,,,,,c,0,space,4.5017,0,0,0,0,1,1.7784,,,,
,,,,,,,,,NAN,,NAN,,0,24,24,24,1,25,Alex,Rej,Participant_Images/6107f902de5549cbdf72cbe1/6107f902de5549cbdf72cbe1_Images/6107f902de5549cbdf72cbe1_Image_11.jpeg,liked,3.602308302,,,,,,,,,,,,,,
,,,,,,,space,1.1791,NAN,,NAN,,0,25,25,25,1,26,Alex,Rej,Participant_Images/6107f902de5549cbdf72cbe1/6107f902de5549cbdf72cbe1_Images/6107f902de5549cbdf72cbe1_Image_30.jpeg,did not like,4.106391878,,,,,,,,,,,,,,
,,,,,,,space,0.5011,NAN,,NAN,,0,26,26,26,1,27,Alex,Rej,Participant_Images/6107f902de5549cbdf72cbe1/6107f902de5549cbdf72cbe1_Images/6107f902de5549cbdf72cbe1_Image_4.jpeg,liked,3.799433026,,,,,,,,,,,,,,
,,,,,,,space,3.8853,NAN,,NAN,,0,27,27,27,1,28,Alex,Rej,Participant_Images/6107f902de5549cbdf72cbe1/6107f902de5549cbdf72cbe1_Images/6107f902de5549cbdf72cbe1_Image_23.jpeg,did not like,5.246980764,,,,,,,,,,,,,,
,,,,,,,space,2.5253,NAN,,NAN,,0,28,28,28,1,29,Alex,Rej,Participant_Images/6107f902de5549cbdf72cbe1/6107f902de5549cbdf72cbe1_Images/6107f902de5549cbdf72cbe1_Image_28.jpeg,did not like,3.30081769,,,,,,,,,,,,,,
,,,,,,,,,,,,,,,,,,,,,,,,s,1,space,0.4366,0,0,0,0,1,1.3618,h,0.4165,,
,,,,,,,,,2,,7,,0,29,29,29,1,30,Alex,Rej,Participant_Images/6107f902de5549cbdf72cbe1/6107f902de5549cbdf72cbe1_Images/6107f902de5549cbdf72cbe1_Image_9.jpeg,did not like,1.661473164,,,,,,,,,,,,,,
,,,,,space,4.1627,space,4.9319,NAN,,NAN,,0,30,30,30,1,31,Taylor,Rej,Participant_Images/6107f902de5549cbdf72cbe1/6107f902de5549cbdf72cbe1_Images/6107f902de5549cbdf72cbe1_Image_12.jpeg,did not like,3.613205605,,,,,,,,,,,,,,
,,,,,,,space,0.7989,NAN,,NAN,,0,31,31,31,1,32,Taylor,Rej,Participant_Images/6107f902de5549cbdf72cbe1/6107f902de5549cbdf72cbe1_Images/6107f902de5549cbdf72cbe1_Image_18.jpeg,did not like,4.988446431,,,,,,,,,,,,,,
,,,,,,,space,0.8283,NAN,,NAN,,0,32,32,32,1,33,Taylor,Rej,Participant_Images/6107f902de5549cbdf72cbe1/6107f902de5549cbdf72cbe1_Images/6107f902de5549cbdf72cbe1_Image_3.jpeg,did not like,3.470791822,,,,,,,,,,,,,,
,,,,,,,space,0.0741,NAN,,NAN,,0,33,33,33,1,34,Taylor,Rej,Participant_Images/6107f902de5549cbdf72cbe1/6107f902de5549cbdf72cbe1_Images/6107f902de5549cbdf72cbe1_Image_23.jpeg,did not like,3.820572462,,,,,,,,,,,,,,
,,,,,,,,,,,,,,,,,,,,,,,,s,1,space,0.5671,0,0,0,0,1,1.2726,l,0.311,,
,,,,,,,,,NAN,,NAN,,0,34,34,34,1,35,Taylor,Rej,Participant_Images/6107f902de5549cbdf72cbe1/6107f902de5549cbdf72cbe1_Images/6107f902de5549cbdf72cbe1_Image_25.jpeg,did not like,2.455989137,,,,,,,,,,,,,,
,,,,,,,space,0.0356,NAN,,NAN,,0,35,35,35,1,36,Taylor,Rej,Participant_Images/6107f902de5549cbdf72cbe1/6107f902de5549cbdf72cbe1_Images/6107f902de5549cbdf72cbe1_Image_15.jpeg,did not like,3.79605092,,,,,,,,,,,,,,
,,,,,,,space,2.0204,NAN,,NAN,,0,36,36,36,1,37,Taylor,Rej,Participant_Images/6107f902de5549cbdf72cbe1/6107f902de5549cbdf72cbe1_Images/6107f902de5549cbdf72cbe1_Image_19.jpeg,liked,3.562416326,,,,,,,,,,,,,,
,,,,,,,space,2.9166,NAN,,NAN,,0,37,37,37,1,38,Taylor,Rej,Participant_Images/6107f902de5549cbdf72cbe1/6107f902de5549cbdf72cbe1_Images/6107f902de5549cbdf72cbe1_Image_29.jpeg,liked,2.843822497,,,,,,,,,,,,,,
,,,,,,,space,1.0706,NAN,,NAN,,0,38,38,38,1,39,Taylor,Rej,Participant_Images/6107f902de5549cbdf72cbe1/6107f902de5549cbdf72cbe1_Images/6107f902de5549cbdf72cbe1_Image_14.jpeg,liked,3.546495948,,,,,,,,,,,,,,
,,,,,,,,,,,,,,,,,,,,,,,,s,1,space,0.6002,0,0,0,0,1,3.257,h,1.3002,,
,,,,,,,,,NAN,,NAN,,0,39,39,39,1,40,Taylor,Rej,Participant_Images/6107f902de5549cbdf72cbe1/6107f902de5549cbdf72cbe1_Images/6107f902de5549cbdf72cbe1_Image_22.jpeg,liked,1.672012706,,,,,,,,,,,,,,
,,,,,,,space,1.1993,NAN,,NAN,,0,40,40,40,1,41,Taylor,Rej,Participant_Images/6107f902de5549cbdf72cbe1/6107f902de5549cbdf72cbe1_Images/6107f902de5549cbdf72cbe1_Image_17.jpeg,did not like,4.942172136,,,,,,,,,,,,,,
,,,,,,,space,0.9739,NAN,,NAN,,0,41,41,41,1,42,Taylor,Rej,Participant_Images/6107f902de5549cbdf72cbe1/6107f902de5549cbdf72cbe1_Images/6107f902de5549cbdf72cbe1_Image_30.jpeg,did not like,2.50187214,,,,,,,,,,,,,,
,,,,,,,space,0.6188,NAN,,NAN,,0,42,42,42,1,43,Taylor,Rej,Participant_Images/6107f902de5549cbdf72cbe1/6107f902de5549cbdf72cbe1_Images/6107f902de5549cbdf72cbe1_Image_4.jpeg,did not like,2.071164779,,,,,,,,,,,,,,
,,,,,,,space,0.5082,NAN,,NAN,,0,43,43,43,1,44,Taylor,Rej,Participant_Images/6107f902de5549cbdf72cbe1/6107f902de5549cbdf72cbe1_Images/6107f902de5549cbdf72cbe1_Image_5.jpeg,did not like,5.336503566,,,,,,,,,,,,,,
,,,,,,,,,,,,,,,,,,,,,,,,c,0,space,2.0547,0,0,0,0,1,0.8366,,,,
,,,,,,,,,NAN,,NAN,,0,44,44,44,1,45,Taylor,Rej,Participant_Images/6107f902de5549cbdf72cbe1/6107f902de5549cbdf72cbe1_Images/6107f902de5549cbdf72cbe1_Image_11.jpeg,liked,2.642157193,,,,,,,,,,,,,,
,,,,,,,space,0.2572,NAN,,NAN,,0,45,45,45,1,46,Taylor,Rej,Participant_Images/6107f902de5549cbdf72cbe1/6107f902de5549cbdf72cbe1_Images/6107f902de5549cbdf72cbe1_Image_20.jpeg,did not like,4.456234322,,,,,,,,,,,,,,
,,,,,,,space,0.7661,NAN,,NAN,,0,46,46,46,1,47,Taylor,Rej,Participant_Images/6107f902de5549cbdf72cbe1/6107f902de5549cbdf72cbe1_Images/6107f902de5549cbdf72cbe1_Image_28.jpeg,did not like,4.438512181,,,,,,,,,,,,,,
,,,,,,,space,0.3308,NAN,,NAN,,0,47,47,47,1,48,Taylor,Rej,Participant_Images/6107f902de5549cbdf72cbe1/6107f902de5549cbdf72cbe1_Images/6107f902de5549cbdf72cbe1_Image_2.jpeg,did not like,2.682944783,,,,,,,,,,,,,,
,,,,,,,space,0.4401,NAN,,NAN,,0,48,48,48,1,49,Taylor,Rej,Participant_Images/6107f902de5549cbdf72cbe1/6107f902de5549cbdf72cbe1_Images/6107f902de5549cbdf72cbe1_Image_16.jpeg,did not like,4.51984296,,,,,,,,,,,,,,
,,,,,,,,,,,,,,,,,,,,,,,,s,1,space,0.6539,0,0,0,0,1,1.0125,l,0.2245,,
,,,,,,,,,NAN,,NAN,,0,49,49,49,1,50,Taylor,Rej,Participant_Images/6107f902de5549cbdf72cbe1/6107f902de5549cbdf72cbe1_Images/6107f902de5549cbdf72cbe1_Image_10.jpeg,did not like,3.195382774,,,,,,,,,,,,,,
,,,,,,,space,4.3635,NAN,,NAN,,0,50,50,50,1,51,Taylor,Rej,Participant_Images/6107f902de5549cbdf72cbe1/6107f902de5549cbdf72cbe1_Images/6107f902de5549cbdf72cbe1_Image_6.jpeg,liked,1.779333479,,,,,,,,,,,,,,
,,,,,,,space,0.8485,NAN,,NAN,,0,51,51,51,1,52,Taylor,Rej,Participant_Images/6107f902de5549cbdf72cbe1/6107f902de5549cbdf72cbe1_Images/6107f902de5549cbdf72cbe1_Image_13.jpeg,did not like,4.312468682,,,,,,,,,,,,,,
,,,,,,,space,0.6342,NAN,,NAN,,0,52,52,52,1,53,Taylor,Rej,Participant_Images/6107f902de5549cbdf72cbe1/6107f902de5549cbdf72cbe1_Images/6107f902de5549cbdf72cbe1_Image_21.jpeg,liked,4.940433059,,,,,,,,,,,,,,
,,,,,,,space,0.7004,NAN,,NAN,,0,53,53,53,1,54,Taylor,Rej,Participant_Images/6107f902de5549cbdf72cbe1/6107f902de5549cbdf72cbe1_Images/6107f902de5549cbdf72cbe1_Image_8.jpeg,did not like,2.7105123,,,,,,,,,,,,,,
,,,,,,,,,,,,,,,,,,,,,,,,c,0,space,0.7592,0,0,0,0,1,1.2363,,,,
,,,,,,,,,NAN,,NAN,,0,54,54,54,1,55,Taylor,Rej,Participant_Images/6107f902de5549cbdf72cbe1/6107f902de5549cbdf72cbe1_Images/6107f902de5549cbdf72cbe1_Image_24.jpeg,did not like,3.602308302,,,,,,,,,,,,,,
,,,,,,,space,1.4587,NAN,,NAN,,0,55,55,55,1,56,Taylor,Rej,Participant_Images/6107f902de5549cbdf72cbe1/6107f902de5549cbdf72cbe1_Images/6107f902de5549cbdf72cbe1_Image_9.jpeg,liked,4.106391878,,,,,,,,,,,,,,
,,,,,,,space,0.5605,NAN,,NAN,,0,56,56,56,1,57,Taylor,Rej,Participant_Images/6107f902de5549cbdf72cbe1/6107f902de5549cbdf72cbe1_Images/6107f902de5549cbdf72cbe1_Image_1.jpeg,did not like,3.799433026,,,,,,,,,,,,,,
,,,,,,,space,1.1845,NAN,,NAN,,0,57,57,57,1,58,Taylor,Rej,Participant_Images/6107f902de5549cbdf72cbe1/6107f902de5549cbdf72cbe1_Images/6107f902de5549cbdf72cbe1_Image_7.jpeg,did not like,5.246980764,,,,,,,,,,,,,,
,,,,,,,space,0.8438,NAN,,NAN,,0,58,58,58,1,59,Taylor,Rej,Participant_Images/6107f902de5549cbdf72cbe1/6107f902de5549cbdf72cbe1_Images/6107f902de5549cbdf72cbe1_Image_27.jpeg,liked,3.30081769,,,,,,,,,,,,,,
,,,,,,,,,,,,,,,,,,,,,,,,s,1,space,0.3669,0,0,0,0,1,1.2858,h,0.0499,,
,,,,,,,,,3,,7,,0,59,59,59,1,60,Taylor,Rej,Participant_Images/6107f902de5549cbdf72cbe1/6107f902de5549cbdf72cbe1_Images/6107f902de5549cbdf72cbe1_Image_26.jpeg,did not like,1.661473164,,,,,,,,,,,,,,
,,,,,space,1.7665,space,2.8828,NAN,,NAN,,0,60,60,60,1,61,Sam,Acc,Participant_Images/6107f902de5549cbdf72cbe1/6107f902de5549cbdf72cbe1_Images/6107f902de5549cbdf72cbe1_Image_15.jpeg,liked,3.613205605,,,,,,,,,,,,,,
,,,,,,,space,0.2387,NAN,,NAN,,0,61,61,61,1,62,Sam,Acc,Participant_Images/6107f902de5549cbdf72cbe1/6107f902de5549cbdf72cbe1_Images/6107f902de5549cbdf72cbe1_Image_24.jpeg,liked,4.988446431,,,,,,,,,,,,,,
,,,,,,,space,3.5499,NAN,,NAN,,0,62,62,62,1,63,Sam,Acc,Participant_Images/6107f902de5549cbdf72cbe1/6107f902de5549cbdf72cbe1_Images/6107f902de5549cbdf72cbe1_Image_8.jpeg,liked,3.470791822,,,,,,,,,,,,,,
,,,,,,,space,0.7327,NAN,,NAN,,0,63,63,63,1,64,Sam,Acc,Participant_Images/6107f902de5549cbdf72cbe1/6107f902de5549cbdf72cbe1_Images/6107f902de5549cbdf72cbe1_Image_18.jpeg,liked,3.820572462,,,,,,,,,,,,,,
,,,,,,,,,,,,,,,,,,,,,,,,c,0,space,4.4852,0,0,0,0,1,1.2798,,,,
,,,,,,,,,NAN,,NAN,,0,64,64,64,1,65,Sam,Acc,Participant_Images/6107f902de5549cbdf72cbe1/6107f902de5549cbdf72cbe1_Images/6107f902de5549cbdf72cbe1_Image_21.jpeg,did not like,2.455989137,,,,,,,,,,,,,,
,,,,,,,space,0.6582,NAN,,NAN,,0,65,65,65,1,66,Sam,Acc,Participant_Images/6107f902de5549cbdf72cbe1/6107f902de5549cbdf72cbe1_Images/6107f902de5549cbdf72cbe1_Image_13.jpeg,liked,3.79605092,,,,,,,,,,,,,,
,,,,,,,space,1.0487,NAN,,NAN,,0,66,66,66,1,67,Sam,Acc,Participant_Images/6107f902de5549cbdf72cbe1/6107f902de5549cbdf72cbe1_Images/6107f902de5549cbdf72cbe1_Image_19.jpeg,liked,3.562416326,,,,,,,,,,,,,,
,,,,,,,space,5.8758,NAN,,NAN,,0,67,67,67,1,68,Sam,Acc,Participant_Images/6107f902de5549cbdf72cbe1/6107f902de5549cbdf72cbe1_Images/6107f902de5549cbdf72cbe1_Image_4.jpeg,did not like,2.843822497,,,,,,,,,,,,,,
,,,,,,,space,1.0494,NAN,,NAN,,0,68,68,68,1,69,Sam,Acc,Participant_Images/6107f902de5549cbdf72cbe1/6107f902de5549cbdf72cbe1_Images/6107f902de5549cbdf72cbe1_Image_16.jpeg,liked,3.546495948,,,,,,,,,,,,,,
,,,,,,,,,,,,,,,,,,,,,,,,c,0,space,6.533,0,0,0,0,1,1.951,,,,
,,,,,,,,,NAN,,NAN,,0,69,69,69,1,70,Sam,Acc,Participant_Images/6107f902de5549cbdf72cbe1/6107f902de5549cbdf72cbe1_Images/6107f902de5549cbdf72cbe1_Image_3.jpeg,liked,1.672012706,,,,,,,,,,,,,,
,,,,,,,space,1.1837,NAN,,NAN,,0,70,70,70,1,71,Sam,Acc,Participant_Images/6107f902de5549cbdf72cbe1/6107f902de5549cbdf72cbe1_Images/6107f902de5549cbdf72cbe1_Image_14.jpeg,liked,4.942172136,,,,,,,,,,,,,,
,,,,,,,space,3.4118,NAN,,NAN,,0,71,71,71,1,72,Sam,Acc,Participant_Images/6107f902de5549cbdf72cbe1/6107f902de5549cbdf72cbe1_Images/6107f902de5549cbdf72cbe1_Image_22.jpeg,liked,2.50187214,,,,,,,,,,,,,,
,,,,,,,space,0.8702,NAN,,NAN,,0,72,72,72,1,73,Sam,Acc,Participant_Images/6107f902de5549cbdf72cbe1/6107f902de5549cbdf72cbe1_Images/6107f902de5549cbdf72cbe1_Image_17.jpeg,liked,2.071164779,,,,,,,,,,,,,,
,,,,,,,space,1.211,NAN,,NAN,,0,73,73,73,1,74,Sam,Acc,Participant_Images/6107f902de5549cbdf72cbe1/6107f902de5549cbdf72cbe1_Images/6107f902de5549cbdf72cbe1_Image_10.jpeg,liked,5.336503566,,,,,,,,,,,,,,
,,,,,,,,,,,,,,,,,,,,,,,,s,1,space,0.8316,0,0,0,0,1,1.7013,h,0.6261,,
,,,,,,,,,NAN,,NAN,,0,74,74,74,1,75,Sam,Acc,Participant_Images/6107f902de5549cbdf72cbe1/6107f902de5549cbdf72cbe1_Images/6107f902de5549cbdf72cbe1_Image_5.jpeg,liked,2.642157193,,,,,,,,,,,,,,
,,,,,,,space,1.6004,NAN,,NAN,,0,75,75,75,1,76,Sam,Acc,Participant_Images/6107f902de5549cbdf72cbe1/6107f902de5549cbdf72cbe1_Images/6107f902de5549cbdf72cbe1_Image_12.jpeg,liked,4.456234322,,,,,,,,,,,,,,
,,,,,,,space,1.1988,NAN,,NAN,,0,76,76,76,1,77,Sam,Acc,Participant_Images/6107f902de5549cbdf72cbe1/6107f902de5549cbdf72cbe1_Images/6107f902de5549cbdf72cbe1_Image_28.jpeg,did not like,4.438512181,,,,,,,,,,,,,,
,,,,,,,space,0.7143,NAN,,NAN,,0,77,77,77,1,78,Sam,Acc,Participant_Images/6107f902de5549cbdf72cbe1/6107f902de5549cbdf72cbe1_Images/6107f902de5549cbdf72cbe1_Image_23.jpeg,did not like,2.682944783,,,,,,,,,,,,,,
,,,,,,,space,1.6092,NAN,,NAN,,0,78,78,78,1,79,Sam,Acc,Participant_Images/6107f902de5549cbdf72cbe1/6107f902de5549cbdf72cbe1_Images/6107f902de5549cbdf72cbe1_Image_29.jpeg,liked,4.51984296,,,,,,,,,,,,,,
,,,,,,,,,,,,,,,,,,,,,,,,c,0,space,1.3299,0,0,0,0,1,1.1182,,,,
,,,,,,,,,NAN,,NAN,,0,79,79,79,1,80,Sam,Acc,Participant_Images/6107f902de5549cbdf72cbe1/6107f902de5549cbdf72cbe1_Images/6107f902de5549cbdf72cbe1_Image_25.jpeg,did not like,3.195382774,,,,,,,,,,,,,,
,,,,,,,space,0.5633,NAN,,NAN,,0,80,80,80,1,81,Sam,Acc,Participant_Images/6107f902de5549cbdf72cbe1/6107f902de5549cbdf72cbe1_Images/6107f902de5549cbdf72cbe1_Image_20.jpeg,did not like,1.779333479,,,,,,,,,,,,,,
,,,,,,,space,0.7671,NAN,,NAN,,0,81,81,81,1,82,Sam,Acc,Participant_Images/6107f902de5549cbdf72cbe1/6107f902de5549cbdf72cbe1_Images/6107f902de5549cbdf72cbe1_Image_27.jpeg,did not like,4.312468682,,,,,,,,,,,,,,
,,,,,,,space,1.2345,NAN,,NAN,,0,82,82,82,1,83,Sam,Acc,Participant_Images/6107f902de5549cbdf72cbe1/6107f902de5549cbdf72cbe1_Images/6107f902de5549cbdf72cbe1_Image_1.jpeg,did not like,4.940433059,,,,,,,,,,,,,,
,,,,,,,space,0.4335,NAN,,NAN,,0,83,83,83,1,84,Sam,Acc,Participant_Images/6107f902de5549cbdf72cbe1/6107f902de5549cbdf72cbe1_Images/6107f902de5549cbdf72cbe1_Image_7.jpeg,did not like,2.7105123,,,,,,,,,,,,,,
,,,,,,,,,,,,,,,,,,,,,,,,s,1,space,0.471,0,0,0,0,1,0.7382,h,0.2815,,
,,,,,,,,,NAN,,NAN,,0,84,84,84,1,85,Sam,Acc,Participant_Images/6107f902de5549cbdf72cbe1/6107f902de5549cbdf72cbe1_Images/6107f902de5549cbdf72cbe1_Image_9.jpeg,liked,3.602308302,,,,,,,,,,,,,,
,,,,,,,space,0.6542,NAN,,NAN,,0,85,85,85,1,86,Sam,Acc,Participant_Images/6107f902de5549cbdf72cbe1/6107f902de5549cbdf72cbe1_Images/6107f902de5549cbdf72cbe1_Image_2.jpeg,liked,4.106391878,,,,,,,,,,,,,,
,,,,,,,space,0.4214,NAN,,NAN,,0,86,86,86,1,87,Sam,Acc,Participant_Images/6107f902de5549cbdf72cbe1/6107f902de5549cbdf72cbe1_Images/6107f902de5549cbdf72cbe1_Image_11.jpeg,liked,3.799433026,,,,,,,,,,,,,,
,,,,,,,space,0.723,NAN,,NAN,,0,87,87,87,1,88,Sam,Acc,Participant_Images/6107f902de5549cbdf72cbe1/6107f902de5549cbdf72cbe1_Images/6107f902de5549cbdf72cbe1_Image_6.jpeg,liked,5.246980764,,,,,,,,,,,,,,
,,,,,,,space,0.7785,NAN,,NAN,,0,88,88,88,1,89,Sam,Acc,Participant_Images/6107f902de5549cbdf72cbe1/6107f902de5549cbdf72cbe1_Images/6107f902de5549cbdf72cbe1_Image_30.jpeg,liked,3.30081769,,,,,,,,,,,,,,
,,,,,,,,,,,,,,,,,,,,,,,,c,0,space,0.6202,0,0,0,0,1,1.0901,,,,
,,,,,,,,,5,,7,,0,89,89,89,1,90,Sam,Acc,Participant_Images/6107f902de5549cbdf72cbe1/6107f902de5549cbdf72cbe1_Images/6107f902de5549cbdf72cbe1_Image_26.jpeg,liked,1.661473164,,,,,,,,,,,,,,
,,,,,space,1.6165,space,0.7946,NAN,,NAN,,0,90,90,90,1,91,Riley,Neutral,Participant_Images/6107f902de5549cbdf72cbe1/6107f902de5549cbdf72cbe1_Images/6107f902de5549cbdf72cbe1_Image_23.jpeg,liked,3.613205605,,,,,,,,,,,,,,
,,,,,,,space,0.5676,NAN,,NAN,,0,91,91,91,1,92,Riley,Neutral,Participant_Images/6107f902de5549cbdf72cbe1/6107f902de5549cbdf72cbe1_Images/6107f902de5549cbdf72cbe1_Image_3.jpeg,liked,4.988446431,,,,,,,,,,,,,,
,,,,,,,space,0.6883,NAN,,NAN,,0,92,92,92,1,93,Riley,Neutral,Participant_Images/6107f902de5549cbdf72cbe1/6107f902de5549cbdf72cbe1_Images/6107f902de5549cbdf72cbe1_Image_5.jpeg,did not like,3.470791822,,,,,,,,,,,,,,
,,,,,,,space,0.6721,NAN,,NAN,,0,93,93,93,1,94,Riley,Neutral,Participant_Images/6107f902de5549cbdf72cbe1/6107f902de5549cbdf72cbe1_Images/6107f902de5549cbdf72cbe1_Image_1.jpeg,did not like,3.820572462,,,,,,,,,,,,,,
,,,,,,,,,,,,,,,,,,,,,,,,s,1,space,0.6609,0,0,0,0,1,1.1406,h,0.3541,,
,,,,,,,,,NAN,,NAN,,0,94,94,94,1,95,Riley,Neutral,Participant_Images/6107f902de5549cbdf72cbe1/6107f902de5549cbdf72cbe1_Images/6107f902de5549cbdf72cbe1_Image_15.jpeg,did not like,2.455989137,,,,,,,,,,,,,,
,,,,,,,space,1.9243,NAN,,NAN,,0,95,95,95,1,96,Riley,Neutral,Participant_Images/6107f902de5549cbdf72cbe1/6107f902de5549cbdf72cbe1_Images/6107f902de5549cbdf72cbe1_Image_4.jpeg,did not like,3.79605092,,,,,,,,,,,,,,
,,,,,,,space,1.1791,NAN,,NAN,,0,96,96,96,1,97,Riley,Neutral,Participant_Images/6107f902de5549cbdf72cbe1/6107f902de5549cbdf72cbe1_Images/6107f902de5549cbdf72cbe1_Image_27.jpeg,liked,3.562416326,,,,,,,,,,,,,,
,,,,,,,space,0.9106,NAN,,NAN,,0,97,97,97,1,98,Riley,Neutral,Participant_Images/6107f902de5549cbdf72cbe1/6107f902de5549cbdf72cbe1_Images/6107f902de5549cbdf72cbe1_Image_16.jpeg,liked,2.843822497,,,,,,,,,,,,,,
,,,,,,,space,0.5376,NAN,,NAN,,0,98,98,98,1,99,Riley,Neutral,Participant_Images/6107f902de5549cbdf72cbe1/6107f902de5549cbdf72cbe1_Images/6107f902de5549cbdf72cbe1_Image_13.jpeg,liked,3.546495948,,,,,,,,,,,,,,
,,,,,,,,,,,,,,,,,,,,,,,,c,0,space,0.961,0,0,0,0,1,0.6256,,,,
,,,,,,,,,NAN,,NAN,,0,99,99,99,1,100,Riley,Neutral,Participant_Images/6107f902de5549cbdf72cbe1/6107f902de5549cbdf72cbe1_Images/6107f902de5549cbdf72cbe1_Image_29.jpeg,did not like,1.672012706,,,,,,,,,,,,,,
,,,,,,,space,0.8524,NAN,,NAN,,0,100,100,100,1,101,Riley,Neutral,Participant_Images/6107f902de5549cbdf72cbe1/6107f902de5549cbdf72cbe1_Images/6107f902de5549cbdf72cbe1_Image_18.jpeg,did not like,4.942172136,,,,,,,,,,,,,,
,,,,,,,space,0.8324,NAN,,NAN,,0,101,101,101,1,102,Riley,Neutral,Participant_Images/6107f902de5549cbdf72cbe1/6107f902de5549cbdf72cbe1_Images/6107f902de5549cbdf72cbe1_Image_22.jpeg,liked,2.50187214,,,,,,,,,,,,,,
,,,,,,,space,0.7521,NAN,,NAN,,0,102,102,102,1,103,Riley,Neutral,Participant_Images/6107f902de5549cbdf72cbe1/6107f902de5549cbdf72cbe1_Images/6107f902de5549cbdf72cbe1_Image_7.jpeg,did not like,2.071164779,,,,,,,,,,,,,,
,,,,,,,space,0.8372,NAN,,NAN,,0,103,103,103,1,104,Riley,Neutral,Participant_Images/6107f902de5549cbdf72cbe1/6107f902de5549cbdf72cbe1_Images/6107f902de5549cbdf72cbe1_Image_21.jpeg,did not like,5.336503566,,,,,,,,,,,,,,
,,,,,,,,,,,,,,,,,,,,,,,,s,1,space,0.6934,0,0,0,0,1,1.7794,l,0.2875,,
,,,,,,,,,NAN,,NAN,,0,104,104,104,1,105,Riley,Neutral,Participant_Images/6107f902de5549cbdf72cbe1/6107f902de5549cbdf72cbe1_Images/6107f902de5549cbdf72cbe1_Image_17.jpeg,did not like,2.642157193,,,,,,,,,,,,,,
,,,,,,,space,0.621,NAN,,NAN,,0,105,105,105,1,106,Riley,Neutral,Participant_Images/6107f902de5549cbdf72cbe1/6107f902de5549cbdf72cbe1_Images/6107f902de5549cbdf72cbe1_Image_6.jpeg,did not like,4.456234322,,,,,,,,,,,,,,
,,,,,,,space,0.6715,NAN,,NAN,,0,106,106,106,1,107,Riley,Neutral,Participant_Images/6107f902de5549cbdf72cbe1/6107f902de5549cbdf72cbe1_Images/6107f902de5549cbdf72cbe1_Image_9.jpeg,did not like,4.438512181,,,,,,,,,,,,,,
,,,,,,,space,0.4661,NAN,,NAN,,0,107,107,107,1,108,Riley,Neutral,Participant_Images/6107f902de5549cbdf72cbe1/6107f902de5549cbdf72cbe1_Images/6107f902de5549cbdf72cbe1_Image_26.jpeg,liked,2.682944783,,,,,,,,,,,,,,
,,,,,,,space,0.9838,NAN,,NAN,,0,108,108,108,1,109,Riley,Neutral,Participant_Images/6107f902de5549cbdf72cbe1/6107f902de5549cbdf72cbe1_Images/6107f902de5549cbdf72cbe1_Image_8.jpeg,did not like,4.51984296,,,,,,,,,,,,,,
,,,,,,,,,,,,,,,,,,,,,,,,c,0,space,6.8517,0,0,0,0,1,1.6871,,,,
,,,,,,,,,NAN,,NAN,,0,109,109,109,1,110,Riley,Neutral,Participant_Images/6107f902de5549cbdf72cbe1/6107f902de5549cbdf72cbe1_Images/6107f902de5549cbdf72cbe1_Image_19.jpeg,did not like,3.195382774,,,,,,,,,,,,,,
,,,,,,,space,2.0484,NAN,,NAN,,0,110,110,110,1,111,Riley,Neutral,Participant_Images/6107f902de5549cbdf72cbe1/6107f902de5549cbdf72cbe1_Images/6107f902de5549cbdf72cbe1_Image_28.jpeg,liked,1.779333479,,,,,,,,,,,,,,
,,,,,,,space,0.7056,NAN,,NAN,,0,111,111,111,1,112,Riley,Neutral,Participant_Images/6107f902de5549cbdf72cbe1/6107f902de5549cbdf72cbe1_Images/6107f902de5549cbdf72cbe1_Image_24.jpeg,liked,4.312468682,,,,,,,,,,,,,,
,,,,,,,space,1.2789,NAN,,NAN,,0,112,112,112,1,113,Riley,Neutral,Participant_Images/6107f902de5549cbdf72cbe1/6107f902de5549cbdf72cbe1_Images/6107f902de5549cbdf72cbe1_Image_14.jpeg,did not like,4.940433059,,,,,,,,,,,,,,
,,,,,,,space,0.903,NAN,,NAN,,0,113,113,113,1,114,Riley,Neutral,Participant_Images/6107f902de5549cbdf72cbe1/6107f902de5549cbdf72cbe1_Images/6107f902de5549cbdf72cbe1_Image_10.jpeg,liked,2.7105123,,,,,,,,,,,,,,
,,,,,,,,,,,,,,,,,,,,,,,,c,0,space,2.3003,0,0,0,0,1,1.6169,,,,
,,,,,,,,,NAN,,NAN,,0,114,114,114,1,115,Riley,Neutral,Participant_Images/6107f902de5549cbdf72cbe1/6107f902de5549cbdf72cbe1_Images/6107f902de5549cbdf72cbe1_Image_30.jpeg,did not like,3.602308302,,,,,,,,,,,,,,
,,,,,,,space,0.7934,NAN,,NAN,,0,115,115,115,1,116,Riley,Neutral,Participant_Images/6107f902de5549cbdf72cbe1/6107f902de5549cbdf72cbe1_Images/6107f902de5549cbdf72cbe1_Image_2.jpeg,liked,4.106391878,,,,,,,,,,,,,,
,,,,,,,space,3.3936,NAN,,NAN,,0,116,116,116,1,117,Riley,Neutral,Participant_Images/6107f902de5549cbdf72cbe1/6107f902de5549cbdf72cbe1_Images/6107f902de5549cbdf72cbe1_Image_20.jpeg,liked,3.799433026,,,,,,,,,,,,,,
,,,,,,,space,1.0482,NAN,,NAN,,0,117,117,117,1,118,Riley,Neutral,Participant_Images/6107f902de5549cbdf72cbe1/6107f902de5549cbdf72cbe1_Images/6107f902de5549cbdf72cbe1_Image_11.jpeg,liked,5.246980764,,,,,,,,,,,,,,
,,,,,,,space,0.6893,NAN,,NAN,,0,118,118,118,1,119,Riley,Neutral,Participant_Images/6107f902de5549cbdf72cbe1/6107f902de5549cbdf72cbe1_Images/6107f902de5549cbdf72cbe1_Image_12.jpeg,liked,3.30081769,,,,,,,,,,,,,,
,,,,,,,,,,,,,,,,,,,,,,,,c,0,space,0.1671,0,0,0,0,1,1.3773,,,,
,,,,,,,,,3,,7,,0,119,119,119,1,120,Riley,Neutral,Participant_Images/6107f902de5549cbdf72cbe1/6107f902de5549cbdf72cbe1_Images/6107f902de5549cbdf72cbe1_Image_25.jpeg,liked,1.661473164,,,,,,,,,,,,,,
,,,,,space,1.4336,space,3.7618,NAN,,NAN,,0,120,120,120,1,121,Charlie,Acc,Participant_Images/6107f902de5549cbdf72cbe1/6107f902de5549cbdf72cbe1_Images/6107f902de5549cbdf72cbe1_Image_6.jpeg,did not like,3.613205605,,,,,,,,,,,,,,
,,,,,,,space,1.9953,NAN,,NAN,,0,121,121,121,1,122,Charlie,Acc,Participant_Images/6107f902de5549cbdf72cbe1/6107f902de5549cbdf72cbe1_Images/6107f902de5549cbdf72cbe1_Image_1.jpeg,liked,4.988446431,,,,,,,,,,,,,,
,,,,,,,space,2.7844,NAN,,NAN,,0,122,122,122,1,123,Charlie,Acc,Participant_Images/6107f902de5549cbdf72cbe1/6107f902de5549cbdf72cbe1_Images/6107f902de5549cbdf72cbe1_Image_11.jpeg,liked,3.470791822,,,,,,,,,,,,,,
,,,,,,,space,3.3757,NAN,,NAN,,0,123,123,123,1,124,Charlie,Acc,Participant_Images/6107f902de5549cbdf72cbe1/6107f902de5549cbdf72cbe1_Images/6107f902de5549cbdf72cbe1_Image_24.jpeg,did not like,3.820572462,,,,,,,,,,,,,,
,,,,,,,,,,,,,,,,,,,,,,,,s,1,space,0.8213,0,0,0,0,1,1.3648,h,0.3446,,
,,,,,,,,,NAN,,NAN,,0,124,124,124,1,125,Charlie,Acc,Participant_Images/6107f902de5549cbdf72cbe1/6107f902de5549cbdf72cbe1_Images/6107f902de5549cbdf72cbe1_Image_14.jpeg,did not like,2.455989137,,,,,,,,,,,,,,
,,,,,,,space,0.5502,NAN,,NAN,,0,125,125,125,1,126,Charlie,Acc,Participant_Images/6107f902de5549cbdf72cbe1/6107f902de5549cbdf72cbe1_Images/6107f902de5549cbdf72cbe1_Image_25.jpeg,liked,3.79605092,,,,,,,,,,,,,,
,,,,,,,space,0.5355,NAN,,NAN,,0,126,126,126,1,127,Charlie,Acc,Participant_Images/6107f902de5549cbdf72cbe1/6107f902de5549cbdf72cbe1_Images/6107f902de5549cbdf72cbe1_Image_2.jpeg,did not like,3.562416326,,,,,,,,,,,,,,
,,,,,,,space,0.888,NAN,,NAN,,0,127,127,127,1,128,Charlie,Acc,Participant_Images/6107f902de5549cbdf72cbe1/6107f902de5549cbdf72cbe1_Images/6107f902de5549cbdf72cbe1_Image_13.jpeg,liked,2.843822497,,,,,,,,,,,,,,
,,,,,,,space,0.4611,NAN,,NAN,,0,128,128,128,1,129,Charlie,Acc,Participant_Images/6107f902de5549cbdf72cbe1/6107f902de5549cbdf72cbe1_Images/6107f902de5549cbdf72cbe1_Image_28.jpeg,did not like,3.546495948,,,,,,,,,,,,,,
,,,,,,,,,,,,,,,,,,,,,,,,c,0,space,0.5291,0,0,0,0,1,1.2305,,,,
,,,,,,,,,NAN,,NAN,,0,129,129,129,1,130,Charlie,Acc,Participant_Images/6107f902de5549cbdf72cbe1/6107f902de5549cbdf72cbe1_Images/6107f902de5549cbdf72cbe1_Image_17.jpeg,did not like,1.672012706,,,,,,,,,,,,,,
,,,,,,,space,0.4527,NAN,,NAN,,0,130,130,130,1,131,Charlie,Acc,Participant_Images/6107f902de5549cbdf72cbe1/6107f902de5549cbdf72cbe1_Images/6107f902de5549cbdf72cbe1_Image_26.jpeg,liked,4.942172136,,,,,,,,,,,,,,
,,,,,,,space,0.7577,NAN,,NAN,,0,131,131,131,1,132,Charlie,Acc,Participant_Images/6107f902de5549cbdf72cbe1/6107f902de5549cbdf72cbe1_Images/6107f902de5549cbdf72cbe1_Image_21.jpeg,liked,2.50187214,,,,,,,,,,,,,,
,,,,,,,space,1.9174,NAN,,NAN,,0,132,132,132,1,133,Charlie,Acc,Participant_Images/6107f902de5549cbdf72cbe1/6107f902de5549cbdf72cbe1_Images/6107f902de5549cbdf72cbe1_Image_7.jpeg,liked,2.071164779,,,,,,,,,,,,,,
,,,,,,,space,1.4259,NAN,,NAN,,0,133,133,133,1,134,Charlie,Acc,Participant_Images/6107f902de5549cbdf72cbe1/6107f902de5549cbdf72cbe1_Images/6107f902de5549cbdf72cbe1_Image_27.jpeg,liked,5.336503566,,,,,,,,,,,,,,
,,,,,,,,,,,,,,,,,,,,,,,,s,1,space,0.3016,0,0,0,0,1,2.838,h,0.3209,,
,,,,,,,,,NAN,,NAN,,0,134,134,134,1,135,Charlie,Acc,Participant_Images/6107f902de5549cbdf72cbe1/6107f902de5549cbdf72cbe1_Images/6107f902de5549cbdf72cbe1_Image_4.jpeg,did not like,2.642157193,,,,,,,,,,,,,,
,,,,,,,space,0.28,NAN,,NAN,,0,135,135,135,1,136,Charlie,Acc,Participant_Images/6107f902de5549cbdf72cbe1/6107f902de5549cbdf72cbe1_Images/6107f902de5549cbdf72cbe1_Image_8.jpeg,liked,4.456234322,,,,,,,,,,,,,,
,,,,,,,space,0.6914,NAN,,NAN,,0,136,136,136,1,137,Charlie,Acc,Participant_Images/6107f902de5549cbdf72cbe1/6107f902de5549cbdf72cbe1_Images/6107f902de5549cbdf72cbe1_Image_23.jpeg,liked,4.438512181,,,,,,,,,,,,,,
,,,,,,,space,11.2367,NAN,,NAN,,0,137,137,137,1,138,Charlie,Acc,Participant_Images/6107f902de5549cbdf72cbe1/6107f902de5549cbdf72cbe1_Images/6107f902de5549cbdf72cbe1_Image_29.jpeg,liked,2.682944783,,,,,,,,,,,,,,
,,,,,,,space,1.3483,NAN,,NAN,,0,138,138,138,1,139,Charlie,Acc,Participant_Images/6107f902de5549cbdf72cbe1/6107f902de5549cbdf72cbe1_Images/6107f902de5549cbdf72cbe1_Image_30.jpeg,did not like,4.51984296,,,,,,,,,,,,,,
,,,,,,,,,,,,,,,,,,,,,,,,c,0,space,9.7282,0,0,0,0,1,1.4837,,,,
,,,,,,,,,NAN,,NAN,,0,139,139,139,1,140,Charlie,Acc,Participant_Images/6107f902de5549cbdf72cbe1/6107f902de5549cbdf72cbe1_Images/6107f902de5549cbdf72cbe1_Image_5.jpeg,liked,3.195382774,,,,,,,,,,,,,,
,,,,,,,space,5.7849,NAN,,NAN,,0,140,140,140,1,141,Charlie,Acc,Participant_Images/6107f902de5549cbdf72cbe1/6107f902de5549cbdf72cbe1_Images/6107f902de5549cbdf72cbe1_Image_15.jpeg,liked,1.779333479,,,,,,,,,,,,,,
,,,,,,,space,0.6203,NAN,,NAN,,0,141,141,141,1,142,Charlie,Acc,Participant_Images/6107f902de5549cbdf72cbe1/6107f902de5549cbdf72cbe1_Images/6107f902de5549cbdf72cbe1_Image_18.jpeg,liked,4.312468682,,,,,,,,,,,,,,
,,,,,,,space,2.462,NAN,,NAN,,0,142,142,142,1,143,Charlie,Acc,Participant_Images/6107f902de5549cbdf72cbe1/6107f902de5549cbdf72cbe1_Images/6107f902de5549cbdf72cbe1_Image_9.jpeg,liked,4.940433059,,,,,,,,,,,,,,
,,,,,,,space,2.8943,NAN,,NAN,,0,143,143,143,1,144,Charlie,Acc,Participant_Images/6107f902de5549cbdf72cbe1/6107f902de5549cbdf72cbe1_Images/6107f902de5549cbdf72cbe1_Image_10.jpeg,liked,2.7105123,,,,,,,,,,,,,,
,,,,,,,,,,,,,,,,,,,,,,,,,999,space,0.1681,0,0,0,0,1,,,,,
,,,,,,,,,NAN,,NAN,,0,144,144,144,1,145,Charlie,Acc,Participant_Images/6107f902de5549cbdf72cbe1/6107f902de5549cbdf72cbe1_Images/6107f902de5549cbdf72cbe1_Image_20.jpeg,liked,3.602308302,,,,,,,,,,,,,,
,,,,,,,space,0.3345,NAN,,NAN,,0,145,145,145,1,146,Charlie,Acc,Participant_Images/6107f902de5549cbdf72cbe1/6107f902de5549cbdf72cbe1_Images/6107f902de5549cbdf72cbe1_Image_22.jpeg,liked,4.106391878,,,,,,,,,,,,,,
,,,,,,,space,0.7607,NAN,,NAN,,0,146,146,146,1,147,Charlie,Acc,Participant_Images/6107f902de5549cbdf72cbe1/6107f902de5549cbdf72cbe1_Images/6107f902de5549cbdf72cbe1_Image_19.jpeg,did not like,3.799433026,,,,,,,,,,,,,,
,,,,,,,space,0.5847,NAN,,NAN,,0,147,147,147,1,148,Charlie,Acc,Participant_Images/6107f902de5549cbdf72cbe1/6107f902de5549cbdf72cbe1_Images/6107f902de5549cbdf72cbe1_Image_12.jpeg,liked,5.246980764,,,,,,,,,,,,,,
,,,,,,,space,0.5235,NAN,,NAN,,0,148,148,148,1,149,Charlie,Acc,Participant_Images/6107f902de5549cbdf72cbe1/6107f902de5549cbdf72cbe1_Images/6107f902de5549cbdf72cbe1_Image_3.jpeg,liked,3.30081769,,,,,,,,,,,,,,
,,,,,,,,,,,,,,,,,,,,,,,,c,0,space,1.2999,0,0,0,0,1,2.3317,,,,
,,,,,,,,,2,,7,,0,149,149,149,1,150,Charlie,Acc,Participant_Images/6107f902de5549cbdf72cbe1/6107f902de5549cbdf72cbe1_Images/6107f902de5549cbdf72cbe1_Image_16.jpeg,liked,1.661473164,,,,,,,,,,,,,,
,,,,,,,,,,,,,,,,,,,,,,,,,,,,,,,,,,,,space,2.671
