PROLIFIC_ID,endwelcomescreen_keys.keys,endwelcomescreen_keys.rt,endinstructionscreen_keys.keys,endinstructionscreen_keys.rt,endpartnermatch_keys.keys,endpartnermatch_keys.rt,sharenextphoto_key.keys,sharenextphoto_key.rt,salience_rating,key_resp.keys,stress_level,stresslevel_keypress.keys,entiretaskloop.thisRepN,entiretaskloop.thisTrialN,entiretaskloop.thisN,entiretaskloop.thisIndex,entiretaskloop.ran,TrialNumber,Partner,Condition,Photos,Feedback,FeedbackWait,choice_keys.keys,playlottery,resumeafterlottery_keys.keys,resumeafterlottery_keys.rt,lotteryloop.thisRepN,lotteryloop.thisTrialN,lotteryloop.thisN,lotteryloop.thisIndex,lotteryloop.ran,choice_keys.rt,lotteryguess_keys.keys,end_screen_keys.keys,end_screen_keys.rt
6111234ac8cfa49e38acbfb4,space,26.0353,,,,,,,,,,,,,,,,,,,,,,,,,,,,,,,,,,
6111234ac8cfa49e38acbfb4,,,,,,,,,,,,,,,,,,,,,,,,,,,,,,,,,,,,
6111234ac8cfa49e38acbfb4,,,space,30.2145,,,,,,,,,,,,,,,,,,,,,,,,,,,,,,,,
6111234ac8cfa49e38acbfb4,,,,,space,4.1256,space,0.9209,NAN,,NAN,,0.0,0.0,0.0,0.0,1.0,1.0,Riley,Rej,Participant_Images/6111234ac8cfa49e38acbfb4/6111234ac8cfa49e38acbfb4_Images/6111234ac8cfa49e38acbfb4_Image_20.jpeg,did not like,3.613205605,,,,,,,,,,,,,
6111234ac8cfa49e38acbfb4,,,,,,,space,0.6399,NAN,,NAN,,0.0,1.0,1.0,1.0,1.0,2.0,Riley,Rej,Participant_Images/6111234ac8cfa49e38acbfb4/6111234ac8cfa49e38acbfb4_Images/6111234ac8cfa49e38acbfb4_Image_18.jpeg,did not like,4.988446431,,,,,,,,,,,,,
6111234ac8cfa49e38acbfb4,,,,,,,space,0.8244,NAN,,NAN,,0.0,2.0,2.0,2.0,1.0,3.0,Riley,Rej,Participant_Images/6111234ac8cfa49e38acbfb4/6111234ac8cfa49e38acbfb4_Images/6111234ac8cfa49e38acbfb4_Image_12.jpeg,did not like,3.470791822,,,,,,,,,,,,,
6111234ac8cfa49e38acbfb4,,,,,,,space,0.5512,NAN,,NAN,,0.0,3.0,3.0,3.0,1.0,4.0,Riley,Rej,Participant_Images/6111234ac8cfa49e38acbfb4/6111234ac8cfa49e38acbfb4_Images/6111234ac8cfa49e38acbfb4_Image_24.jpeg,did not like,3.820572462,,,,,,,,,,,,,
6111234ac8cfa49e38acbfb4,,,,,,,,,,,,,,,,,,,,,,,,,999.0,space,4.0916,0.0,0.0,0.0,0.0,1.0,,,,
6111234ac8cfa49e38acbfb4,,,,,,,,,NAN,,NAN,,0.0,4.0,4.0,4.0,1.0,5.0,Riley,Rej,Participant_Images/6111234ac8cfa49e38acbfb4/6111234ac8cfa49e38acbfb4_Images/6111234ac8cfa49e38acbfb4_Image_26.jpeg,did not like,2.455989137,,,,,,,,,,,,,
6111234ac8cfa49e38acbfb4,,,,,,,space,0.5331,NAN,,NAN,,0.0,5.0,5.0,5.0,1.0,6.0,Riley,Rej,Participant_Images/6111234ac8cfa49e38acbfb4/6111234ac8cfa49e38acbfb4_Images/6111234ac8cfa49e38acbfb4_Image_4.jpeg,did not like,3.79605092,,,,,,,,,,,,,
6111234ac8cfa49e38acbfb4,,,,,,,space,0.5074,NAN,,NAN,,0.0,6.0,6.0,6.0,1.0,7.0,Riley,Rej,Participant_Images/6111234ac8cfa49e38acbfb4/6111234ac8cfa49e38acbfb4_Images/6111234ac8cfa49e38acbfb4_Image_21.jpeg,liked,3.562416326,,,,,,,,,,,,,
6111234ac8cfa49e38acbfb4,,,,,,,space,0.8407,NAN,,NAN,,0.0,7.0,7.0,7.0,1.0,8.0,Riley,Rej,Participant_Images/6111234ac8cfa49e38acbfb4/6111234ac8cfa49e38acbfb4_Images/6111234ac8cfa49e38acbfb4_Image_9.jpeg,did not like,2.843822497,,,,,,,,,,,,,
6111234ac8cfa49e38acbfb4,,,,,,,space,0.5401,NAN,,NAN,,0.0,8.0,8.0,8.0,1.0,9.0,Riley,Rej,Participant_Images/6111234ac8cfa49e38acbfb4/6111234ac8cfa49e38acbfb4_Images/6111234ac8cfa49e38acbfb4_Image_17.jpeg,liked,3.546495948,,,,,,,,,,,,,
6111234ac8cfa49e38acbfb4,,,,,,,,,,,,,,,,,,,,,,,,c,0.0,space,1.6852,0.0,0.0,0.0,0.0,1.0,1.7134,,,
6111234ac8cfa49e38acbfb4,,,,,,,,,NAN,,NAN,,0.0,9.0,9.0,9.0,1.0,10.0,Riley,Rej,Participant_Images/6111234ac8cfa49e38acbfb4/6111234ac8cfa49e38acbfb4_Images/6111234ac8cfa49e38acbfb4_Image_25.jpeg,did not like,1.672012706,,,,,,,,,,,,,
6111234ac8cfa49e38acbfb4,,,,,,,space,0.4897,NAN,,NAN,,0.0,10.0,10.0,10.0,1.0,11.0,Riley,Rej,Participant_Images/6111234ac8cfa49e38acbfb4/6111234ac8cfa49e38acbfb4_Images/6111234ac8cfa49e38acbfb4_Image_6.jpeg,did not like,4.942172136,,,,,,,,,,,,,
6111234ac8cfa49e38acbfb4,,,,,,,space,1.0695,NAN,,NAN,,0.0,11.0,11.0,11.0,1.0,12.0,Riley,Rej,Participant_Images/6111234ac8cfa49e38acbfb4/6111234ac8cfa49e38acbfb4_Images/6111234ac8cfa49e38acbfb4_Image_15.jpeg,liked,2.50187214,,,,,,,,,,,,,
6111234ac8cfa49e38acbfb4,,,,,,,space,0.5014,NAN,,NAN,,0.0,12.0,12.0,12.0,1.0,13.0,Riley,Rej,Participant_Images/6111234ac8cfa49e38acbfb4/6111234ac8cfa49e38acbfb4_Images/6111234ac8cfa49e38acbfb4_Image_16.jpeg,did not like,2.071164779,,,,,,,,,,,,,
6111234ac8cfa49e38acbfb4,,,,,,,space,0.6342,NAN,,NAN,,0.0,13.0,13.0,13.0,1.0,14.0,Riley,Rej,Participant_Images/6111234ac8cfa49e38acbfb4/6111234ac8cfa49e38acbfb4_Images/6111234ac8cfa49e38acbfb4_Image_14.jpeg,did not like,5.336503566,,,,,,,,,,,,,
6111234ac8cfa49e38acbfb4,,,,,,,,,,,,,,,,,,,,,,,,s,1.0,space,0.8315,0.0,0.0,0.0,0.0,1.0,1.5637,,,
6111234ac8cfa49e38acbfb4,,,,,,,,,NAN,,NAN,,0.0,14.0,14.0,14.0,1.0,15.0,Riley,Rej,Participant_Images/6111234ac8cfa49e38acbfb4/6111234ac8cfa49e38acbfb4_Images/6111234ac8cfa49e38acbfb4_Image_13.jpeg,liked,2.642157193,,,,,,,,,,,,,
6111234ac8cfa49e38acbfb4,,,,,,,space,0.6761,NAN,,NAN,,0.0,15.0,15.0,15.0,1.0,16.0,Riley,Rej,Participant_Images/6111234ac8cfa49e38acbfb4/6111234ac8cfa49e38acbfb4_Images/6111234ac8cfa49e38acbfb4_Image_1.jpeg,did not like,4.456234322,,,,,,,,,,,,,
6111234ac8cfa49e38acbfb4,,,,,,,space,0.5663,NAN,,NAN,,0.0,16.0,16.0,16.0,1.0,17.0,Riley,Rej,Participant_Images/6111234ac8cfa49e38acbfb4/6111234ac8cfa49e38acbfb4_Images/6111234ac8cfa49e38acbfb4_Image_7.jpeg,liked,4.438512181,,,,,,,,,,,,,
6111234ac8cfa49e38acbfb4,,,,,,,space,0.7323,NAN,,NAN,,0.0,17.0,17.0,17.0,1.0,18.0,Riley,Rej,Participant_Images/6111234ac8cfa49e38acbfb4/6111234ac8cfa49e38acbfb4_Images/6111234ac8cfa49e38acbfb4_Image_27.jpeg,liked,2.682944783,,,,,,,,,,,,,
6111234ac8cfa49e38acbfb4,,,,,,,space,0.5328,NAN,,NAN,,0.0,18.0,18.0,18.0,1.0,19.0,Riley,Rej,Participant_Images/6111234ac8cfa49e38acbfb4/6111234ac8cfa49e38acbfb4_Images/6111234ac8cfa49e38acbfb4_Image_5.jpeg,did not like,4.51984296,,,,,,,,,,,,,
6111234ac8cfa49e38acbfb4,,,,,,,,,,,,,,,,,,,,,,,,c,0.0,space,0.5634,0.0,0.0,0.0,0.0,1.0,0.8732,,,
6111234ac8cfa49e38acbfb4,,,,,,,,,NAN,,NAN,,0.0,19.0,19.0,19.0,1.0,20.0,Riley,Rej,Participant_Images/6111234ac8cfa49e38acbfb4/6111234ac8cfa49e38acbfb4_Images/6111234ac8cfa49e38acbfb4_Image_23.jpeg,did not like,3.195382774,,,,,,,,,,,,,
6111234ac8cfa49e38acbfb4,,,,,,,space,1.0558,NAN,,NAN,,0.0,20.0,20.0,20.0,1.0,21.0,Riley,Rej,Participant_Images/6111234ac8cfa49e38acbfb4/6111234ac8cfa49e38acbfb4_Images/6111234ac8cfa49e38acbfb4_Image_28.jpeg,did not like,1.779333479,,,,,,,,,,,,,
6111234ac8cfa49e38acbfb4,,,,,,,space,0.5233,NAN,,NAN,,0.0,21.0,21.0,21.0,1.0,22.0,Riley,Rej,Participant_Images/6111234ac8cfa49e38acbfb4/6111234ac8cfa49e38acbfb4_Images/6111234ac8cfa49e38acbfb4_Image_29.jpeg,did not like,4.312468682,,,,,,,,,,,,,
6111234ac8cfa49e38acbfb4,,,,,,,space,0.5515,NAN,,NAN,,0.0,22.0,22.0,22.0,1.0,23.0,Riley,Rej,Participant_Images/6111234ac8cfa49e38acbfb4/6111234ac8cfa49e38acbfb4_Images/6111234ac8cfa49e38acbfb4_Image_10.jpeg,did not like,4.940433059,,,,,,,,,,,,,
6111234ac8cfa49e38acbfb4,,,,,,,space,0.4629,NAN,,NAN,,0.0,23.0,23.0,23.0,1.0,24.0,Riley,Rej,Participant_Images/6111234ac8cfa49e38acbfb4/6111234ac8cfa49e38acbfb4_Images/6111234ac8cfa49e38acbfb4_Image_3.jpeg,did not like,2.7105123,,,,,,,,,,,,,
6111234ac8cfa49e38acbfb4,,,,,,,,,,,,,,,,,,,,,,,,c,0.0,space,0.547,0.0,0.0,0.0,0.0,1.0,1.1147,,,
6111234ac8cfa49e38acbfb4,,,,,,,,,NAN,,NAN,,0.0,24.0,24.0,24.0,1.0,25.0,Riley,Rej,Participant_Images/6111234ac8cfa49e38acbfb4/6111234ac8cfa49e38acbfb4_Images/6111234ac8cfa49e38acbfb4_Image_2.jpeg,liked,3.602308302,,,,,,,,,,,,,
6111234ac8cfa49e38acbfb4,,,,,,,space,0.6356,NAN,,NAN,,0.0,25.0,25.0,25.0,1.0,26.0,Riley,Rej,Participant_Images/6111234ac8cfa49e38acbfb4/6111234ac8cfa49e38acbfb4_Images/6111234ac8cfa49e38acbfb4_Image_19.jpeg,liked,4.106391878,,,,,,,,,,,,,
6111234ac8cfa49e38acbfb4,,,,,,,space,0.3989,NAN,,NAN,,0.0,26.0,26.0,26.0,1.0,27.0,Riley,Rej,Participant_Images/6111234ac8cfa49e38acbfb4/6111234ac8cfa49e38acbfb4_Images/6111234ac8cfa49e38acbfb4_Image_30.jpeg,did not like,3.799433026,,,,,,,,,,,,,
6111234ac8cfa49e38acbfb4,,,,,,,space,0.4428,NAN,,NAN,,0.0,27.0,27.0,27.0,1.0,28.0,Riley,Rej,Participant_Images/6111234ac8cfa49e38acbfb4/6111234ac8cfa49e38acbfb4_Images/6111234ac8cfa49e38acbfb4_Image_22.jpeg,did not like,5.246980764,,,,,,,,,,,,,
6111234ac8cfa49e38acbfb4,,,,,,,space,0.4507,NAN,,NAN,,0.0,28.0,28.0,28.0,1.0,29.0,Riley,Rej,Participant_Images/6111234ac8cfa49e38acbfb4/6111234ac8cfa49e38acbfb4_Images/6111234ac8cfa49e38acbfb4_Image_8.jpeg,did not like,3.30081769,,,,,,,,,,,,,
6111234ac8cfa49e38acbfb4,,,,,,,,,,,,,,,,,,,,,,,,c,0.0,space,0.5279,0.0,0.0,0.0,0.0,1.0,0.9543,,,
6111234ac8cfa49e38acbfb4,,,,,,,,,1,,2,,0.0,29.0,29.0,29.0,1.0,30.0,Riley,Rej,Participant_Images/6111234ac8cfa49e38acbfb4/6111234ac8cfa49e38acbfb4_Images/6111234ac8cfa49e38acbfb4_Image_11.jpeg,liked,1.661473164,,,,,,,,,,,,,
6111234ac8cfa49e38acbfb4,,,,,space,1.9619,space,0.5568,NAN,,NAN,,0.0,30.0,30.0,30.0,1.0,31.0,Sam,Acc,Participant_Images/6111234ac8cfa49e38acbfb4/6111234ac8cfa49e38acbfb4_Images/6111234ac8cfa49e38acbfb4_Image_1.jpeg,liked,3.613205605,,,,,,,,,,,,,
6111234ac8cfa49e38acbfb4,,,,,,,space,1.4426,NAN,,NAN,,0.0,31.0,31.0,31.0,1.0,32.0,Sam,Acc,Participant_Images/6111234ac8cfa49e38acbfb4/6111234ac8cfa49e38acbfb4_Images/6111234ac8cfa49e38acbfb4_Image_28.jpeg,liked,4.988446431,,,,,,,,,,,,,
6111234ac8cfa49e38acbfb4,,,,,,,space,0.3816,NAN,,NAN,,0.0,32.0,32.0,32.0,1.0,33.0,Sam,Acc,Participant_Images/6111234ac8cfa49e38acbfb4/6111234ac8cfa49e38acbfb4_Images/6111234ac8cfa49e38acbfb4_Image_20.jpeg,liked,3.470791822,,,,,,,,,,,,,
6111234ac8cfa49e38acbfb4,,,,,,,space,0.8477,NAN,,NAN,,0.0,33.0,33.0,33.0,1.0,34.0,Sam,Acc,Participant_Images/6111234ac8cfa49e38acbfb4/6111234ac8cfa49e38acbfb4_Images/6111234ac8cfa49e38acbfb4_Image_14.jpeg,did not like,3.820572462,,,,,,,,,,,,,
6111234ac8cfa49e38acbfb4,,,,,,,,,,,,,,,,,,,,,,,,c,0.0,space,0.8494,0.0,0.0,0.0,0.0,1.0,0.9309,,,
6111234ac8cfa49e38acbfb4,,,,,,,,,NAN,,NAN,,0.0,34.0,34.0,34.0,1.0,35.0,Sam,Acc,Participant_Images/6111234ac8cfa49e38acbfb4/6111234ac8cfa49e38acbfb4_Images/6111234ac8cfa49e38acbfb4_Image_11.jpeg,did not like,2.455989137,,,,,,,,,,,,,
6111234ac8cfa49e38acbfb4,,,,,,,space,0.5923,NAN,,NAN,,0.0,35.0,35.0,35.0,1.0,36.0,Sam,Acc,Participant_Images/6111234ac8cfa49e38acbfb4/6111234ac8cfa49e38acbfb4_Images/6111234ac8cfa49e38acbfb4_Image_5.jpeg,liked,3.79605092,,,,,,,,,,,,,
6111234ac8cfa49e38acbfb4,,,,,,,space,2.6472,NAN,,NAN,,0.0,36.0,36.0,36.0,1.0,37.0,Sam,Acc,Participant_Images/6111234ac8cfa49e38acbfb4/6111234ac8cfa49e38acbfb4_Images/6111234ac8cfa49e38acbfb4_Image_30.jpeg,liked,3.562416326,,,,,,,,,,,,,
6111234ac8cfa49e38acbfb4,,,,,,,space,0.3862,NAN,,NAN,,0.0,37.0,37.0,37.0,1.0,38.0,Sam,Acc,Participant_Images/6111234ac8cfa49e38acbfb4/6111234ac8cfa49e38acbfb4_Images/6111234ac8cfa49e38acbfb4_Image_2.jpeg,liked,2.843822497,,,,,,,,,,,,,
6111234ac8cfa49e38acbfb4,,,,,,,space,0.4863,NAN,,NAN,,0.0,38.0,38.0,38.0,1.0,39.0,Sam,Acc,Participant_Images/6111234ac8cfa49e38acbfb4/6111234ac8cfa49e38acbfb4_Images/6111234ac8cfa49e38acbfb4_Image_13.jpeg,liked,3.546495948,,,,,,,,,,,,,
6111234ac8cfa49e38acbfb4,,,,,,,,,,,,,,,,,,,,,,,,c,0.0,space,0.8901,0.0,0.0,0.0,0.0,1.0,0.9965,,,
6111234ac8cfa49e38acbfb4,,,,,,,,,NAN,,NAN,,0.0,39.0,39.0,39.0,1.0,40.0,Sam,Acc,Participant_Images/6111234ac8cfa49e38acbfb4/6111234ac8cfa49e38acbfb4_Images/6111234ac8cfa49e38acbfb4_Image_17.jpeg,did not like,1.672012706,,,,,,,,,,,,,
6111234ac8cfa49e38acbfb4,,,,,,,space,0.9554,NAN,,NAN,,0.0,40.0,40.0,40.0,1.0,41.0,Sam,Acc,Participant_Images/6111234ac8cfa49e38acbfb4/6111234ac8cfa49e38acbfb4_Images/6111234ac8cfa49e38acbfb4_Image_3.jpeg,did not like,4.942172136,,,,,,,,,,,,,
6111234ac8cfa49e38acbfb4,,,,,,,space,0.4854,NAN,,NAN,,0.0,41.0,41.0,41.0,1.0,42.0,Sam,Acc,Participant_Images/6111234ac8cfa49e38acbfb4/6111234ac8cfa49e38acbfb4_Images/6111234ac8cfa49e38acbfb4_Image_4.jpeg,liked,2.50187214,,,,,,,,,,,,,
6111234ac8cfa49e38acbfb4,,,,,,,space,0.8841,NAN,,NAN,,0.0,42.0,42.0,42.0,1.0,43.0,Sam,Acc,Participant_Images/6111234ac8cfa49e38acbfb4/6111234ac8cfa49e38acbfb4_Images/6111234ac8cfa49e38acbfb4_Image_18.jpeg,liked,2.071164779,,,,,,,,,,,,,
6111234ac8cfa49e38acbfb4,,,,,,,space,0.4663,NAN,,NAN,,0.0,43.0,43.0,43.0,1.0,44.0,Sam,Acc,Participant_Images/6111234ac8cfa49e38acbfb4/6111234ac8cfa49e38acbfb4_Images/6111234ac8cfa49e38acbfb4_Image_25.jpeg,did not like,5.336503566,,,,,,,,,,,,,
6111234ac8cfa49e38acbfb4,,,,,,,,,,,,,,,,,,,,,,,,c,0.0,space,1.0087,0.0,0.0,0.0,0.0,1.0,1.1885,,,
6111234ac8cfa49e38acbfb4,,,,,,,,,NAN,,NAN,,0.0,44.0,44.0,44.0,1.0,45.0,Sam,Acc,Participant_Images/6111234ac8cfa49e38acbfb4/6111234ac8cfa49e38acbfb4_Images/6111234ac8cfa49e38acbfb4_Image_6.jpeg,did not like,2.642157193,,,,,,,,,,,,,
6111234ac8cfa49e38acbfb4,,,,,,,space,0.693,NAN,,NAN,,0.0,45.0,45.0,45.0,1.0,46.0,Sam,Acc,Participant_Images/6111234ac8cfa49e38acbfb4/6111234ac8cfa49e38acbfb4_Images/6111234ac8cfa49e38acbfb4_Image_29.jpeg,liked,4.456234322,,,,,,,,,,,,,
6111234ac8cfa49e38acbfb4,,,,,,,space,0.5665,NAN,,NAN,,0.0,46.0,46.0,46.0,1.0,47.0,Sam,Acc,Participant_Images/6111234ac8cfa49e38acbfb4/6111234ac8cfa49e38acbfb4_Images/6111234ac8cfa49e38acbfb4_Image_27.jpeg,liked,4.438512181,,,,,,,,,,,,,
6111234ac8cfa49e38acbfb4,,,,,,,space,1.3652,NAN,,NAN,,0.0,47.0,47.0,47.0,1.0,48.0,Sam,Acc,Participant_Images/6111234ac8cfa49e38acbfb4/6111234ac8cfa49e38acbfb4_Images/6111234ac8cfa49e38acbfb4_Image_23.jpeg,did not like,2.682944783,,,,,,,,,,,,,
6111234ac8cfa49e38acbfb4,,,,,,,space,0.633,NAN,,NAN,,0.0,48.0,48.0,48.0,1.0,49.0,Sam,Acc,Participant_Images/6111234ac8cfa49e38acbfb4/6111234ac8cfa49e38acbfb4_Images/6111234ac8cfa49e38acbfb4_Image_19.jpeg,liked,4.51984296,,,,,,,,,,,,,
6111234ac8cfa49e38acbfb4,,,,,,,,,,,,,,,,,,,,,,,,c,0.0,space,1.2059,0.0,0.0,0.0,0.0,1.0,1.4863,,,
6111234ac8cfa49e38acbfb4,,,,,,,,,NAN,,NAN,,0.0,49.0,49.0,49.0,1.0,50.0,Sam,Acc,Participant_Images/6111234ac8cfa49e38acbfb4/6111234ac8cfa49e38acbfb4_Images/6111234ac8cfa49e38acbfb4_Image_24.jpeg,liked,3.195382774,,,,,,,,,,,,,
6111234ac8cfa49e38acbfb4,,,,,,,space,0.9088,NAN,,NAN,,0.0,50.0,50.0,50.0,1.0,51.0,Sam,Acc,Participant_Images/6111234ac8cfa49e38acbfb4/6111234ac8cfa49e38acbfb4_Images/6111234ac8cfa49e38acbfb4_Image_12.jpeg,liked,1.779333479,,,,,,,,,,,,,
6111234ac8cfa49e38acbfb4,,,,,,,space,0.4899,NAN,,NAN,,0.0,51.0,51.0,51.0,1.0,52.0,Sam,Acc,Participant_Images/6111234ac8cfa49e38acbfb4/6111234ac8cfa49e38acbfb4_Images/6111234ac8cfa49e38acbfb4_Image_15.jpeg,liked,4.312468682,,,,,,,,,,,,,
6111234ac8cfa49e38acbfb4,,,,,,,space,0.4473,NAN,,NAN,,0.0,52.0,52.0,52.0,1.0,53.0,Sam,Acc,Participant_Images/6111234ac8cfa49e38acbfb4/6111234ac8cfa49e38acbfb4_Images/6111234ac8cfa49e38acbfb4_Image_7.jpeg,liked,4.940433059,,,,,,,,,,,,,
6111234ac8cfa49e38acbfb4,,,,,,,space,0.8233,NAN,,NAN,,0.0,53.0,53.0,53.0,1.0,54.0,Sam,Acc,Participant_Images/6111234ac8cfa49e38acbfb4/6111234ac8cfa49e38acbfb4_Images/6111234ac8cfa49e38acbfb4_Image_16.jpeg,liked,2.7105123,,,,,,,,,,,,,
6111234ac8cfa49e38acbfb4,,,,,,,,,,,,,,,,,,,,,,,,c,0.0,space,1.3724,0.0,0.0,0.0,0.0,1.0,1.163,,,
6111234ac8cfa49e38acbfb4,,,,,,,,,NAN,,NAN,,0.0,54.0,54.0,54.0,1.0,55.0,Sam,Acc,Participant_Images/6111234ac8cfa49e38acbfb4/6111234ac8cfa49e38acbfb4_Images/6111234ac8cfa49e38acbfb4_Image_26.jpeg,liked,3.602308302,,,,,,,,,,,,,
6111234ac8cfa49e38acbfb4,,,,,,,space,1.6681,NAN,,NAN,,0.0,55.0,55.0,55.0,1.0,56.0,Sam,Acc,Participant_Images/6111234ac8cfa49e38acbfb4/6111234ac8cfa49e38acbfb4_Images/6111234ac8cfa49e38acbfb4_Image_8.jpeg,liked,4.106391878,,,,,,,,,,,,,
6111234ac8cfa49e38acbfb4,,,,,,,space,0.4503,NAN,,NAN,,0.0,56.0,56.0,56.0,1.0,57.0,Sam,Acc,Participant_Images/6111234ac8cfa49e38acbfb4/6111234ac8cfa49e38acbfb4_Images/6111234ac8cfa49e38acbfb4_Image_9.jpeg,did not like,3.799433026,,,,,,,,,,,,,
6111234ac8cfa49e38acbfb4,,,,,,,space,0.341,NAN,,NAN,,0.0,57.0,57.0,57.0,1.0,58.0,Sam,Acc,Participant_Images/6111234ac8cfa49e38acbfb4/6111234ac8cfa49e38acbfb4_Images/6111234ac8cfa49e38acbfb4_Image_21.jpeg,liked,5.246980764,,,,,,,,,,,,,
6111234ac8cfa49e38acbfb4,,,,,,,space,0.5325,NAN,,NAN,,0.0,58.0,58.0,58.0,1.0,59.0,Sam,Acc,Participant_Images/6111234ac8cfa49e38acbfb4/6111234ac8cfa49e38acbfb4_Images/6111234ac8cfa49e38acbfb4_Image_10.jpeg,did not like,3.30081769,,,,,,,,,,,,,
6111234ac8cfa49e38acbfb4,,,,,,,,,,,,,,,,,,,,,,,,c,0.0,space,2.2489,0.0,0.0,0.0,0.0,1.0,1.3386,,,
6111234ac8cfa49e38acbfb4,,,,,,,,,4,,1,,0.0,59.0,59.0,59.0,1.0,60.0,Sam,Acc,Participant_Images/6111234ac8cfa49e38acbfb4/6111234ac8cfa49e38acbfb4_Images/6111234ac8cfa49e38acbfb4_Image_22.jpeg,liked,1.661473164,,,,,,,,,,,,,
6111234ac8cfa49e38acbfb4,,,,,space,0.7625,space,0.9817,NAN,,NAN,,0.0,60.0,60.0,60.0,1.0,61.0,Taylor,Neutral,Participant_Images/6111234ac8cfa49e38acbfb4/6111234ac8cfa49e38acbfb4_Images/6111234ac8cfa49e38acbfb4_Image_3.jpeg,did not like,3.613205605,,,,,,,,,,,,,
6111234ac8cfa49e38acbfb4,,,,,,,space,0.4894,NAN,,NAN,,0.0,61.0,61.0,61.0,1.0,62.0,Taylor,Neutral,Participant_Images/6111234ac8cfa49e38acbfb4/6111234ac8cfa49e38acbfb4_Images/6111234ac8cfa49e38acbfb4_Image_27.jpeg,liked,4.988446431,,,,,,,,,,,,,
6111234ac8cfa49e38acbfb4,,,,,,,space,0.5331,NAN,,NAN,,0.0,62.0,62.0,62.0,1.0,63.0,Taylor,Neutral,Participant_Images/6111234ac8cfa49e38acbfb4/6111234ac8cfa49e38acbfb4_Images/6111234ac8cfa49e38acbfb4_Image_21.jpeg,liked,3.470791822,,,,,,,,,,,,,
6111234ac8cfa49e38acbfb4,,,,,,,space,0.4734,NAN,,NAN,,0.0,63.0,63.0,63.0,1.0,64.0,Taylor,Neutral,Participant_Images/6111234ac8cfa49e38acbfb4/6111234ac8cfa49e38acbfb4_Images/6111234ac8cfa49e38acbfb4_Image_5.jpeg,liked,3.820572462,,,,,,,,,,,,,
6111234ac8cfa49e38acbfb4,,,,,,,,,,,,,,,,,,,,,,,,c,0.0,space,0.8756,0.0,0.0,0.0,0.0,1.0,1.2618,,,
6111234ac8cfa49e38acbfb4,,,,,,,,,NAN,,NAN,,0.0,64.0,64.0,64.0,1.0,65.0,Taylor,Neutral,Participant_Images/6111234ac8cfa49e38acbfb4/6111234ac8cfa49e38acbfb4_Images/6111234ac8cfa49e38acbfb4_Image_10.jpeg,did not like,2.455989137,,,,,,,,,,,,,
6111234ac8cfa49e38acbfb4,,,,,,,space,0.5405,NAN,,NAN,,0.0,65.0,65.0,65.0,1.0,66.0,Taylor,Neutral,Participant_Images/6111234ac8cfa49e38acbfb4/6111234ac8cfa49e38acbfb4_Images/6111234ac8cfa49e38acbfb4_Image_13.jpeg,did not like,3.79605092,,,,,,,,,,,,,
6111234ac8cfa49e38acbfb4,,,,,,,space,1.0443,NAN,,NAN,,0.0,66.0,66.0,66.0,1.0,67.0,Taylor,Neutral,Participant_Images/6111234ac8cfa49e38acbfb4/6111234ac8cfa49e38acbfb4_Images/6111234ac8cfa49e38acbfb4_Image_23.jpeg,did not like,3.562416326,,,,,,,,,,,,,
6111234ac8cfa49e38acbfb4,,,,,,,space,0.4565,NAN,,NAN,,0.0,67.0,67.0,67.0,1.0,68.0,Taylor,Neutral,Participant_Images/6111234ac8cfa49e38acbfb4/6111234ac8cfa49e38acbfb4_Images/6111234ac8cfa49e38acbfb4_Image_28.jpeg,did not like,2.843822497,,,,,,,,,,,,,
6111234ac8cfa49e38acbfb4,,,,,,,space,0.43,NAN,,NAN,,0.0,68.0,68.0,68.0,1.0,69.0,Taylor,Neutral,Participant_Images/6111234ac8cfa49e38acbfb4/6111234ac8cfa49e38acbfb4_Images/6111234ac8cfa49e38acbfb4_Image_26.jpeg,did not like,3.546495948,,,,,,,,,,,,,
6111234ac8cfa49e38acbfb4,,,,,,,,,,,,,,,,,,,,,,,,c,0.0,space,0.6405,0.0,0.0,0.0,0.0,1.0,0.9121,,,
6111234ac8cfa49e38acbfb4,,,,,,,,,NAN,,NAN,,0.0,69.0,69.0,69.0,1.0,70.0,Taylor,Neutral,Participant_Images/6111234ac8cfa49e38acbfb4/6111234ac8cfa49e38acbfb4_Images/6111234ac8cfa49e38acbfb4_Image_7.jpeg,did not like,1.672012706,,,,,,,,,,,,,
6111234ac8cfa49e38acbfb4,,,,,,,space,0.7755,NAN,,NAN,,0.0,70.0,70.0,70.0,1.0,71.0,Taylor,Neutral,Participant_Images/6111234ac8cfa49e38acbfb4/6111234ac8cfa49e38acbfb4_Images/6111234ac8cfa49e38acbfb4_Image_19.jpeg,liked,4.942172136,,,,,,,,,,,,,
6111234ac8cfa49e38acbfb4,,,,,,,space,0.6341,NAN,,NAN,,0.0,71.0,71.0,71.0,1.0,72.0,Taylor,Neutral,Participant_Images/6111234ac8cfa49e38acbfb4/6111234ac8cfa49e38acbfb4_Images/6111234ac8cfa49e38acbfb4_Image_16.jpeg,liked,2.50187214,,,,,,,,,,,,,
6111234ac8cfa49e38acbfb4,,,,,,,space,0.4663,NAN,,NAN,,0.0,72.0,72.0,72.0,1.0,73.0,Taylor,Neutral,Participant_Images/6111234ac8cfa49e38acbfb4/6111234ac8cfa49e38acbfb4_Images/6111234ac8cfa49e38acbfb4_Image_29.jpeg,liked,2.071164779,,,,,,,,,,,,,
6111234ac8cfa49e38acbfb4,,,,,,,space,0.5826,NAN,,NAN,,0.0,73.0,73.0,73.0,1.0,74.0,Taylor,Neutral,Participant_Images/6111234ac8cfa49e38acbfb4/6111234ac8cfa49e38acbfb4_Images/6111234ac8cfa49e38acbfb4_Image_15.jpeg,did not like,5.336503566,,,,,,,,,,,,,
6111234ac8cfa49e38acbfb4,,,,,,,,,,,,,,,,,,,,,,,,c,0.0,space,0.5166,0.0,0.0,0.0,0.0,1.0,0.9879,,,
6111234ac8cfa49e38acbfb4,,,,,,,,,NAN,,NAN,,0.0,74.0,74.0,74.0,1.0,75.0,Taylor,Neutral,Participant_Images/6111234ac8cfa49e38acbfb4/6111234ac8cfa49e38acbfb4_Images/6111234ac8cfa49e38acbfb4_Image_4.jpeg,did not like,2.642157193,,,,,,,,,,,,,
6111234ac8cfa49e38acbfb4,,,,,,,space,1.0077,NAN,,NAN,,0.0,75.0,75.0,75.0,1.0,76.0,Taylor,Neutral,Participant_Images/6111234ac8cfa49e38acbfb4/6111234ac8cfa49e38acbfb4_Images/6111234ac8cfa49e38acbfb4_Image_17.jpeg,did not like,4.456234322,,,,,,,,,,,,,
6111234ac8cfa49e38acbfb4,,,,,,,space,0.707,NAN,,NAN,,0.0,76.0,76.0,76.0,1.0,77.0,Taylor,Neutral,Participant_Images/6111234ac8cfa49e38acbfb4/6111234ac8cfa49e38acbfb4_Images/6111234ac8cfa49e38acbfb4_Image_8.jpeg,liked,4.438512181,,,,,,,,,,,,,
6111234ac8cfa49e38acbfb4,,,,,,,space,0.99,NAN,,NAN,,0.0,77.0,77.0,77.0,1.0,78.0,Taylor,Neutral,Participant_Images/6111234ac8cfa49e38acbfb4/6111234ac8cfa49e38acbfb4_Images/6111234ac8cfa49e38acbfb4_Image_14.jpeg,did not like,2.682944783,,,,,,,,,,,,,
6111234ac8cfa49e38acbfb4,,,,,,,space,0.6664,NAN,,NAN,,0.0,78.0,78.0,78.0,1.0,79.0,Taylor,Neutral,Participant_Images/6111234ac8cfa49e38acbfb4/6111234ac8cfa49e38acbfb4_Images/6111234ac8cfa49e38acbfb4_Image_25.jpeg,liked,4.51984296,,,,,,,,,,,,,
6111234ac8cfa49e38acbfb4,,,,,,,,,,,,,,,,,,,,,,,,c,0.0,space,0.9484,0.0,0.0,0.0,0.0,1.0,1.2076,,,
6111234ac8cfa49e38acbfb4,,,,,,,,,NAN,,NAN,,0.0,79.0,79.0,79.0,1.0,80.0,Taylor,Neutral,Participant_Images/6111234ac8cfa49e38acbfb4/6111234ac8cfa49e38acbfb4_Images/6111234ac8cfa49e38acbfb4_Image_22.jpeg,did not like,3.195382774,,,,,,,,,,,,,
6111234ac8cfa49e38acbfb4,,,,,,,space,0.7896,NAN,,NAN,,0.0,80.0,80.0,80.0,1.0,81.0,Taylor,Neutral,Participant_Images/6111234ac8cfa49e38acbfb4/6111234ac8cfa49e38acbfb4_Images/6111234ac8cfa49e38acbfb4_Image_24.jpeg,did not like,1.779333479,,,,,,,,,,,,,
6111234ac8cfa49e38acbfb4,,,,,,,space,0.5568,NAN,,NAN,,0.0,81.0,81.0,81.0,1.0,82.0,Taylor,Neutral,Participant_Images/6111234ac8cfa49e38acbfb4/6111234ac8cfa49e38acbfb4_Images/6111234ac8cfa49e38acbfb4_Image_9.jpeg,liked,4.312468682,,,,,,,,,,,,,
6111234ac8cfa49e38acbfb4,,,,,,,space,0.5253,NAN,,NAN,,0.0,82.0,82.0,82.0,1.0,83.0,Taylor,Neutral,Participant_Images/6111234ac8cfa49e38acbfb4/6111234ac8cfa49e38acbfb4_Images/6111234ac8cfa49e38acbfb4_Image_30.jpeg,did not like,4.940433059,,,,,,,,,,,,,
6111234ac8cfa49e38acbfb4,,,,,,,space,0.4417,NAN,,NAN,,0.0,83.0,83.0,83.0,1.0,84.0,Taylor,Neutral,Participant_Images/6111234ac8cfa49e38acbfb4/6111234ac8cfa49e38acbfb4_Images/6111234ac8cfa49e38acbfb4_Image_1.jpeg,liked,2.7105123,,,,,,,,,,,,,
6111234ac8cfa49e38acbfb4,,,,,,,,,,,,,,,,,,,,,,,,c,0.0,space,0.5792,0.0,0.0,0.0,0.0,1.0,1.2132,,,
6111234ac8cfa49e38acbfb4,,,,,,,,,NAN,,NAN,,0.0,84.0,84.0,84.0,1.0,85.0,Taylor,Neutral,Participant_Images/6111234ac8cfa49e38acbfb4/6111234ac8cfa49e38acbfb4_Images/6111234ac8cfa49e38acbfb4_Image_12.jpeg,liked,3.602308302,,,,,,,,,,,,,
6111234ac8cfa49e38acbfb4,,,,,,,space,1.0082,NAN,,NAN,,0.0,85.0,85.0,85.0,1.0,86.0,Taylor,Neutral,Participant_Images/6111234ac8cfa49e38acbfb4/6111234ac8cfa49e38acbfb4_Images/6111234ac8cfa49e38acbfb4_Image_18.jpeg,liked,4.106391878,,,,,,,,,,,,,
6111234ac8cfa49e38acbfb4,,,,,,,space,1.0189,NAN,,NAN,,0.0,86.0,86.0,86.0,1.0,87.0,Taylor,Neutral,Participant_Images/6111234ac8cfa49e38acbfb4/6111234ac8cfa49e38acbfb4_Images/6111234ac8cfa49e38acbfb4_Image_2.jpeg,liked,3.799433026,,,,,,,,,,,,,
6111234ac8cfa49e38acbfb4,,,,,,,space,0.914,NAN,,NAN,,0.0,87.0,87.0,87.0,1.0,88.0,Taylor,Neutral,Participant_Images/6111234ac8cfa49e38acbfb4/6111234ac8cfa49e38acbfb4_Images/6111234ac8cfa49e38acbfb4_Image_11.jpeg,did not like,5.246980764,,,,,,,,,,,,,
6111234ac8cfa49e38acbfb4,,,,,,,space,0.4434,NAN,,NAN,,0.0,88.0,88.0,88.0,1.0,89.0,Taylor,Neutral,Participant_Images/6111234ac8cfa49e38acbfb4/6111234ac8cfa49e38acbfb4_Images/6111234ac8cfa49e38acbfb4_Image_6.jpeg,liked,3.30081769,,,,,,,,,,,,,
6111234ac8cfa49e38acbfb4,,,,,,,,,,,,,,,,,,,,,,,,c,0.0,space,0.5226,0.0,0.0,0.0,0.0,1.0,1.0039,,,
6111234ac8cfa49e38acbfb4,,,,,,,,,3,,1,,0.0,89.0,89.0,89.0,1.0,90.0,Taylor,Neutral,Participant_Images/6111234ac8cfa49e38acbfb4/6111234ac8cfa49e38acbfb4_Images/6111234ac8cfa49e38acbfb4_Image_20.jpeg,liked,1.661473164,,,,,,,,,,,,,
6111234ac8cfa49e38acbfb4,,,,,space,0.9219,space,0.6647,NAN,,NAN,,0.0,90.0,90.0,90.0,1.0,91.0,Alex,Rej,Participant_Images/6111234ac8cfa49e38acbfb4/6111234ac8cfa49e38acbfb4_Images/6111234ac8cfa49e38acbfb4_Image_5.jpeg,did not like,3.613205605,,,,,,,,,,,,,
6111234ac8cfa49e38acbfb4,,,,,,,space,0.4675,NAN,,NAN,,0.0,91.0,91.0,91.0,1.0,92.0,Alex,Rej,Participant_Images/6111234ac8cfa49e38acbfb4/6111234ac8cfa49e38acbfb4_Images/6111234ac8cfa49e38acbfb4_Image_26.jpeg,did not like,4.988446431,,,,,,,,,,,,,
6111234ac8cfa49e38acbfb4,,,,,,,space,0.5003,NAN,,NAN,,0.0,92.0,92.0,92.0,1.0,93.0,Alex,Rej,Participant_Images/6111234ac8cfa49e38acbfb4/6111234ac8cfa49e38acbfb4_Images/6111234ac8cfa49e38acbfb4_Image_20.jpeg,did not like,3.470791822,,,,,,,,,,,,,
6111234ac8cfa49e38acbfb4,,,,,,,space,0.3999,NAN,,NAN,,0.0,93.0,93.0,93.0,1.0,94.0,Alex,Rej,Participant_Images/6111234ac8cfa49e38acbfb4/6111234ac8cfa49e38acbfb4_Images/6111234ac8cfa49e38acbfb4_Image_17.jpeg,liked,3.820572462,,,,,,,,,,,,,
6111234ac8cfa49e38acbfb4,,,,,,,,,,,,,,,,,,,,,,,,c,0.0,space,0.7143,0.0,0.0,0.0,0.0,1.0,1.3257,,,
6111234ac8cfa49e38acbfb4,,,,,,,,,NAN,,NAN,,0.0,94.0,94.0,94.0,1.0,95.0,Alex,Rej,Participant_Images/6111234ac8cfa49e38acbfb4/6111234ac8cfa49e38acbfb4_Images/6111234ac8cfa49e38acbfb4_Image_1.jpeg,did not like,2.455989137,,,,,,,,,,,,,
6111234ac8cfa49e38acbfb4,,,,,,,space,0.6577,NAN,,NAN,,0.0,95.0,95.0,95.0,1.0,96.0,Alex,Rej,Participant_Images/6111234ac8cfa49e38acbfb4/6111234ac8cfa49e38acbfb4_Images/6111234ac8cfa49e38acbfb4_Image_8.jpeg,liked,3.79605092,,,,,,,,,,,,,
6111234ac8cfa49e38acbfb4,,,,,,,space,1.0051,NAN,,NAN,,0.0,96.0,96.0,96.0,1.0,97.0,Alex,Rej,Participant_Images/6111234ac8cfa49e38acbfb4/6111234ac8cfa49e38acbfb4_Images/6111234ac8cfa49e38acbfb4_Image_10.jpeg,did not like,3.562416326,,,,,,,,,,,,,
6111234ac8cfa49e38acbfb4,,,,,,,space,0.8201,NAN,,NAN,,0.0,97.0,97.0,97.0,1.0,98.0,Alex,Rej,Participant_Images/6111234ac8cfa49e38acbfb4/6111234ac8cfa49e38acbfb4_Images/6111234ac8cfa49e38acbfb4_Image_18.jpeg,did not like,2.843822497,,,,,,,,,,,,,
6111234ac8cfa49e38acbfb4,,,,,,,space,0.4073,NAN,,NAN,,0.0,98.0,98.0,98.0,1.0,99.0,Alex,Rej,Participant_Images/6111234ac8cfa49e38acbfb4/6111234ac8cfa49e38acbfb4_Images/6111234ac8cfa49e38acbfb4_Image_16.jpeg,liked,3.546495948,,,,,,,,,,,,,
6111234ac8cfa49e38acbfb4,,,,,,,,,,,,,,,,,,,,,,,,c,0.0,space,1.431,0.0,0.0,0.0,0.0,1.0,1.2622,,,
6111234ac8cfa49e38acbfb4,,,,,,,,,NAN,,NAN,,0.0,99.0,99.0,99.0,1.0,100.0,Alex,Rej,Participant_Images/6111234ac8cfa49e38acbfb4/6111234ac8cfa49e38acbfb4_Images/6111234ac8cfa49e38acbfb4_Image_29.jpeg,did not like,1.672012706,,,,,,,,,,,,,
6111234ac8cfa49e38acbfb4,,,,,,,space,0.6575,NAN,,NAN,,0.0,100.0,100.0,100.0,1.0,101.0,Alex,Rej,Participant_Images/6111234ac8cfa49e38acbfb4/6111234ac8cfa49e38acbfb4_Images/6111234ac8cfa49e38acbfb4_Image_11.jpeg,liked,4.942172136,,,,,,,,,,,,,
6111234ac8cfa49e38acbfb4,,,,,,,space,1.1192,NAN,,NAN,,0.0,101.0,101.0,101.0,1.0,102.0,Alex,Rej,Participant_Images/6111234ac8cfa49e38acbfb4/6111234ac8cfa49e38acbfb4_Images/6111234ac8cfa49e38acbfb4_Image_15.jpeg,did not like,2.50187214,,,,,,,,,,,,,
6111234ac8cfa49e38acbfb4,,,,,,,space,0.7987,NAN,,NAN,,0.0,102.0,102.0,102.0,1.0,103.0,Alex,Rej,Participant_Images/6111234ac8cfa49e38acbfb4/6111234ac8cfa49e38acbfb4_Images/6111234ac8cfa49e38acbfb4_Image_12.jpeg,did not like,2.071164779,,,,,,,,,,,,,
6111234ac8cfa49e38acbfb4,,,,,,,space,1.2007,NAN,,NAN,,0.0,103.0,103.0,103.0,1.0,104.0,Alex,Rej,Participant_Images/6111234ac8cfa49e38acbfb4/6111234ac8cfa49e38acbfb4_Images/6111234ac8cfa49e38acbfb4_Image_9.jpeg,liked,5.336503566,,,,,,,,,,,,,
6111234ac8cfa49e38acbfb4,,,,,,,,,,,,,,,,,,,,,,,,c,0.0,space,1.0307,0.0,0.0,0.0,0.0,1.0,1.057,,,
6111234ac8cfa49e38acbfb4,,,,,,,,,NAN,,NAN,,0.0,104.0,104.0,104.0,1.0,105.0,Alex,Rej,Participant_Images/6111234ac8cfa49e38acbfb4/6111234ac8cfa49e38acbfb4_Images/6111234ac8cfa49e38acbfb4_Image_23.jpeg,liked,2.642157193,,,,,,,,,,,,,
6111234ac8cfa49e38acbfb4,,,,,,,space,0.6767,NAN,,NAN,,0.0,105.0,105.0,105.0,1.0,106.0,Alex,Rej,Participant_Images/6111234ac8cfa49e38acbfb4/6111234ac8cfa49e38acbfb4_Images/6111234ac8cfa49e38acbfb4_Image_14.jpeg,did not like,4.456234322,,,,,,,,,,,,,
6111234ac8cfa49e38acbfb4,,,,,,,space,1.6212,NAN,,NAN,,0.0,106.0,106.0,106.0,1.0,107.0,Alex,Rej,Participant_Images/6111234ac8cfa49e38acbfb4/6111234ac8cfa49e38acbfb4_Images/6111234ac8cfa49e38acbfb4_Image_27.jpeg,did not like,4.438512181,,,,,,,,,,,,,
6111234ac8cfa49e38acbfb4,,,,,,,space,0.817,NAN,,NAN,,0.0,107.0,107.0,107.0,1.0,108.0,Alex,Rej,Participant_Images/6111234ac8cfa49e38acbfb4/6111234ac8cfa49e38acbfb4_Images/6111234ac8cfa49e38acbfb4_Image_13.jpeg,did not like,2.682944783,,,,,,,,,,,,,
6111234ac8cfa49e38acbfb4,,,,,,,space,1.067,NAN,,NAN,,0.0,108.0,108.0,108.0,1.0,109.0,Alex,Rej,Participant_Images/6111234ac8cfa49e38acbfb4/6111234ac8cfa49e38acbfb4_Images/6111234ac8cfa49e38acbfb4_Image_24.jpeg,did not like,4.51984296,,,,,,,,,,,,,
6111234ac8cfa49e38acbfb4,,,,,,,,,,,,,,,,,,,,,,,,c,0.0,space,0.6159,0.0,0.0,0.0,0.0,1.0,1.0186,,,
6111234ac8cfa49e38acbfb4,,,,,,,,,NAN,,NAN,,0.0,109.0,109.0,109.0,1.0,110.0,Alex,Rej,Participant_Images/6111234ac8cfa49e38acbfb4/6111234ac8cfa49e38acbfb4_Images/6111234ac8cfa49e38acbfb4_Image_3.jpeg,did not like,3.195382774,,,,,,,,,,,,,
6111234ac8cfa49e38acbfb4,,,,,,,space,0.4663,NAN,,NAN,,0.0,110.0,110.0,110.0,1.0,111.0,Alex,Rej,Participant_Images/6111234ac8cfa49e38acbfb4/6111234ac8cfa49e38acbfb4_Images/6111234ac8cfa49e38acbfb4_Image_25.jpeg,did not like,1.779333479,,,,,,,,,,,,,
6111234ac8cfa49e38acbfb4,,,,,,,space,0.3917,NAN,,NAN,,0.0,111.0,111.0,111.0,1.0,112.0,Alex,Rej,Participant_Images/6111234ac8cfa49e38acbfb4/6111234ac8cfa49e38acbfb4_Images/6111234ac8cfa49e38acbfb4_Image_28.jpeg,did not like,4.312468682,,,,,,,,,,,,,
6111234ac8cfa49e38acbfb4,,,,,,,space,0.825,NAN,,NAN,,0.0,112.0,112.0,112.0,1.0,113.0,Alex,Rej,Participant_Images/6111234ac8cfa49e38acbfb4/6111234ac8cfa49e38acbfb4_Images/6111234ac8cfa49e38acbfb4_Image_22.jpeg,did not like,4.940433059,,,,,,,,,,,,,
6111234ac8cfa49e38acbfb4,,,,,,,space,0.7566,NAN,,NAN,,0.0,113.0,113.0,113.0,1.0,114.0,Alex,Rej,Participant_Images/6111234ac8cfa49e38acbfb4/6111234ac8cfa49e38acbfb4_Images/6111234ac8cfa49e38acbfb4_Image_6.jpeg,liked,2.7105123,,,,,,,,,,,,,
6111234ac8cfa49e38acbfb4,,,,,,,,,,,,,,,,,,,,,,,,c,0.0,space,0.5473,0.0,0.0,0.0,0.0,1.0,1.1977,,,
6111234ac8cfa49e38acbfb4,,,,,,,,,NAN,,NAN,,0.0,114.0,114.0,114.0,1.0,115.0,Alex,Rej,Participant_Images/6111234ac8cfa49e38acbfb4/6111234ac8cfa49e38acbfb4_Images/6111234ac8cfa49e38acbfb4_Image_2.jpeg,liked,3.602308302,,,,,,,,,,,,,
6111234ac8cfa49e38acbfb4,,,,,,,space,0.59,NAN,,NAN,,0.0,115.0,115.0,115.0,1.0,116.0,Alex,Rej,Participant_Images/6111234ac8cfa49e38acbfb4/6111234ac8cfa49e38acbfb4_Images/6111234ac8cfa49e38acbfb4_Image_21.jpeg,did not like,4.106391878,,,,,,,,,,,,,
6111234ac8cfa49e38acbfb4,,,,,,,space,0.939,NAN,,NAN,,0.0,116.0,116.0,116.0,1.0,117.0,Alex,Rej,Participant_Images/6111234ac8cfa49e38acbfb4/6111234ac8cfa49e38acbfb4_Images/6111234ac8cfa49e38acbfb4_Image_30.jpeg,did not like,3.799433026,,,,,,,,,,,,,
6111234ac8cfa49e38acbfb4,,,,,,,space,0.9817,NAN,,NAN,,0.0,117.0,117.0,117.0,1.0,118.0,Alex,Rej,Participant_Images/6111234ac8cfa49e38acbfb4/6111234ac8cfa49e38acbfb4_Images/6111234ac8cfa49e38acbfb4_Image_19.jpeg,did not like,5.246980764,,,,,,,,,,,,,
6111234ac8cfa49e38acbfb4,,,,,,,space,0.4228,NAN,,NAN,,0.0,118.0,118.0,118.0,1.0,119.0,Alex,Rej,Participant_Images/6111234ac8cfa49e38acbfb4/6111234ac8cfa49e38acbfb4_Images/6111234ac8cfa49e38acbfb4_Image_7.jpeg,liked,3.30081769,,,,,,,,,,,,,
6111234ac8cfa49e38acbfb4,,,,,,,,,,,,,,,,,,,,,,,,c,0.0,space,0.4408,0.0,0.0,0.0,0.0,1.0,0.957,,,
6111234ac8cfa49e38acbfb4,,,,,,,,,2,,2,,0.0,119.0,119.0,119.0,1.0,120.0,Alex,Rej,Participant_Images/6111234ac8cfa49e38acbfb4/6111234ac8cfa49e38acbfb4_Images/6111234ac8cfa49e38acbfb4_Image_4.jpeg,did not like,1.661473164,,,,,,,,,,,,,
6111234ac8cfa49e38acbfb4,,,,,space,0.8432,space,1.3569,NAN,,NAN,,0.0,120.0,120.0,120.0,1.0,121.0,Charlie,Acc,Participant_Images/6111234ac8cfa49e38acbfb4/6111234ac8cfa49e38acbfb4_Images/6111234ac8cfa49e38acbfb4_Image_9.jpeg,did not like,3.613205605,,,,,,,,,,,,,
6111234ac8cfa49e38acbfb4,,,,,,,space,1.2413,NAN,,NAN,,0.0,121.0,121.0,121.0,1.0,122.0,Charlie,Acc,Participant_Images/6111234ac8cfa49e38acbfb4/6111234ac8cfa49e38acbfb4_Images/6111234ac8cfa49e38acbfb4_Image_2.jpeg,liked,4.988446431,,,,,,,,,,,,,
6111234ac8cfa49e38acbfb4,,,,,,,space,1.2506,NAN,,NAN,,0.0,122.0,122.0,122.0,1.0,123.0,Charlie,Acc,Participant_Images/6111234ac8cfa49e38acbfb4/6111234ac8cfa49e38acbfb4_Images/6111234ac8cfa49e38acbfb4_Image_21.jpeg,liked,3.470791822,,,,,,,,,,,,,
6111234ac8cfa49e38acbfb4,,,,,,,space,1.0313,NAN,,NAN,,0.0,123.0,123.0,123.0,1.0,124.0,Charlie,Acc,Participant_Images/6111234ac8cfa49e38acbfb4/6111234ac8cfa49e38acbfb4_Images/6111234ac8cfa49e38acbfb4_Image_17.jpeg,did not like,3.820572462,,,,,,,,,,,,,
6111234ac8cfa49e38acbfb4,,,,,,,,,,,,,,,,,,,,,,,,c,0.0,space,0.5078,0.0,0.0,0.0,0.0,1.0,1.0973,,,
6111234ac8cfa49e38acbfb4,,,,,,,,,NAN,,NAN,,0.0,124.0,124.0,124.0,1.0,125.0,Charlie,Acc,Participant_Images/6111234ac8cfa49e38acbfb4/6111234ac8cfa49e38acbfb4_Images/6111234ac8cfa49e38acbfb4_Image_29.jpeg,liked,2.455989137,,,,,,,,,,,,,
6111234ac8cfa49e38acbfb4,,,,,,,space,0.8408,NAN,,NAN,,0.0,125.0,125.0,125.0,1.0,126.0,Charlie,Acc,Participant_Images/6111234ac8cfa49e38acbfb4/6111234ac8cfa49e38acbfb4_Images/6111234ac8cfa49e38acbfb4_Image_5.jpeg,liked,3.79605092,,,,,,,,,,,,,
6111234ac8cfa49e38acbfb4,,,,,,,space,0.6607,NAN,,NAN,,0.0,126.0,126.0,126.0,1.0,127.0,Charlie,Acc,Participant_Images/6111234ac8cfa49e38acbfb4/6111234ac8cfa49e38acbfb4_Images/6111234ac8cfa49e38acbfb4_Image_20.jpeg,liked,3.562416326,,,,,,,,,,,,,
6111234ac8cfa49e38acbfb4,,,,,,,space,0.4892,NAN,,NAN,,0.0,127.0,127.0,127.0,1.0,128.0,Charlie,Acc,Participant_Images/6111234ac8cfa49e38acbfb4/6111234ac8cfa49e38acbfb4_Images/6111234ac8cfa49e38acbfb4_Image_8.jpeg,liked,2.843822497,,,,,,,,,,,,,
6111234ac8cfa49e38acbfb4,,,,,,,space,1.8906,NAN,,NAN,,0.0,128.0,128.0,128.0,1.0,129.0,Charlie,Acc,Participant_Images/6111234ac8cfa49e38acbfb4/6111234ac8cfa49e38acbfb4_Images/6111234ac8cfa49e38acbfb4_Image_4.jpeg,liked,3.546495948,,,,,,,,,,,,,
6111234ac8cfa49e38acbfb4,,,,,,,,,,,,,,,,,,,,,,,,c,0.0,space,1.1406,0.0,0.0,0.0,0.0,1.0,1.2392,,,
6111234ac8cfa49e38acbfb4,,,,,,,,,NAN,,NAN,,0.0,129.0,129.0,129.0,1.0,130.0,Charlie,Acc,Participant_Images/6111234ac8cfa49e38acbfb4/6111234ac8cfa49e38acbfb4_Images/6111234ac8cfa49e38acbfb4_Image_28.jpeg,liked,1.672012706,,,,,,,,,,,,,
6111234ac8cfa49e38acbfb4,,,,,,,space,0.4576,NAN,,NAN,,0.0,130.0,130.0,130.0,1.0,131.0,Charlie,Acc,Participant_Images/6111234ac8cfa49e38acbfb4/6111234ac8cfa49e38acbfb4_Images/6111234ac8cfa49e38acbfb4_Image_22.jpeg,did not like,4.942172136,,,,,,,,,,,,,
6111234ac8cfa49e38acbfb4,,,,,,,space,0.5662,NAN,,NAN,,0.0,131.0,131.0,131.0,1.0,132.0,Charlie,Acc,Participant_Images/6111234ac8cfa49e38acbfb4/6111234ac8cfa49e38acbfb4_Images/6111234ac8cfa49e38acbfb4_Image_18.jpeg,did not like,2.50187214,,,,,,,,,,,,,
6111234ac8cfa49e38acbfb4,,,,,,,space,0.4504,NAN,,NAN,,0.0,132.0,132.0,132.0,1.0,133.0,Charlie,Acc,Participant_Images/6111234ac8cfa49e38acbfb4/6111234ac8cfa49e38acbfb4_Images/6111234ac8cfa49e38acbfb4_Image_26.jpeg,liked,2.071164779,,,,,,,,,,,,,
6111234ac8cfa49e38acbfb4,,,,,,,space,0.3339,NAN,,NAN,,0.0,133.0,133.0,133.0,1.0,134.0,Charlie,Acc,Participant_Images/6111234ac8cfa49e38acbfb4/6111234ac8cfa49e38acbfb4_Images/6111234ac8cfa49e38acbfb4_Image_3.jpeg,liked,5.336503566,,,,,,,,,,,,,
6111234ac8cfa49e38acbfb4,,,,,,,,,,,,,,,,,,,,,,,,c,0.0,space,1.6577,0.0,0.0,0.0,0.0,1.0,1.293,,,
6111234ac8cfa49e38acbfb4,,,,,,,,,NAN,,NAN,,0.0,134.0,134.0,134.0,1.0,135.0,Charlie,Acc,Participant_Images/6111234ac8cfa49e38acbfb4/6111234ac8cfa49e38acbfb4_Images/6111234ac8cfa49e38acbfb4_Image_6.jpeg,liked,2.642157193,,,,,,,,,,,,,
6111234ac8cfa49e38acbfb4,,,,,,,space,0.7496,NAN,,NAN,,0.0,135.0,135.0,135.0,1.0,136.0,Charlie,Acc,Participant_Images/6111234ac8cfa49e38acbfb4/6111234ac8cfa49e38acbfb4_Images/6111234ac8cfa49e38acbfb4_Image_12.jpeg,liked,4.456234322,,,,,,,,,,,,,
6111234ac8cfa49e38acbfb4,,,,,,,space,0.8829,NAN,,NAN,,0.0,136.0,136.0,136.0,1.0,137.0,Charlie,Acc,Participant_Images/6111234ac8cfa49e38acbfb4/6111234ac8cfa49e38acbfb4_Images/6111234ac8cfa49e38acbfb4_Image_23.jpeg,liked,4.438512181,,,,,,,,,,,,,
6111234ac8cfa49e38acbfb4,,,,,,,space,0.5333,NAN,,NAN,,0.0,137.0,137.0,137.0,1.0,138.0,Charlie,Acc,Participant_Images/6111234ac8cfa49e38acbfb4/6111234ac8cfa49e38acbfb4_Images/6111234ac8cfa49e38acbfb4_Image_19.jpeg,did not like,2.682944783,,,,,,,,,,,,,
6111234ac8cfa49e38acbfb4,,,,,,,space,0.885,NAN,,NAN,,0.0,138.0,138.0,138.0,1.0,139.0,Charlie,Acc,Participant_Images/6111234ac8cfa49e38acbfb4/6111234ac8cfa49e38acbfb4_Images/6111234ac8cfa49e38acbfb4_Image_7.jpeg,liked,4.51984296,,,,,,,,,,,,,
6111234ac8cfa49e38acbfb4,,,,,,,,,,,,,,,,,,,,,,,,c,0.0,space,0.5061,0.0,0.0,0.0,0.0,1.0,0.841,,,
6111234ac8cfa49e38acbfb4,,,,,,,,,NAN,,NAN,,0.0,139.0,139.0,139.0,1.0,140.0,Charlie,Acc,Participant_Images/6111234ac8cfa49e38acbfb4/6111234ac8cfa49e38acbfb4_Images/6111234ac8cfa49e38acbfb4_Image_15.jpeg,liked,3.195382774,,,,,,,,,,,,,
6111234ac8cfa49e38acbfb4,,,,,,,space,0.3753,NAN,,NAN,,0.0,140.0,140.0,140.0,1.0,141.0,Charlie,Acc,Participant_Images/6111234ac8cfa49e38acbfb4/6111234ac8cfa49e38acbfb4_Images/6111234ac8cfa49e38acbfb4_Image_27.jpeg,liked,1.779333479,,,,,,,,,,,,,
6111234ac8cfa49e38acbfb4,,,,,,,space,0.356,NAN,,NAN,,0.0,141.0,141.0,141.0,1.0,142.0,Charlie,Acc,Participant_Images/6111234ac8cfa49e38acbfb4/6111234ac8cfa49e38acbfb4_Images/6111234ac8cfa49e38acbfb4_Image_24.jpeg,liked,4.312468682,,,,,,,,,,,,,
6111234ac8cfa49e38acbfb4,,,,,,,space,0.4723,NAN,,NAN,,0.0,142.0,142.0,142.0,1.0,143.0,Charlie,Acc,Participant_Images/6111234ac8cfa49e38acbfb4/6111234ac8cfa49e38acbfb4_Images/6111234ac8cfa49e38acbfb4_Image_25.jpeg,did not like,4.940433059,,,,,,,,,,,,,
6111234ac8cfa49e38acbfb4,,,,,,,space,0.5401,NAN,,NAN,,0.0,143.0,143.0,143.0,1.0,144.0,Charlie,Acc,Participant_Images/6111234ac8cfa49e38acbfb4/6111234ac8cfa49e38acbfb4_Images/6111234ac8cfa49e38acbfb4_Image_13.jpeg,liked,2.7105123,,,,,,,,,,,,,
6111234ac8cfa49e38acbfb4,,,,,,,,,,,,,,,,,,,,,,,,c,0.0,space,4.4826,0.0,0.0,0.0,0.0,1.0,2.018,,,
6111234ac8cfa49e38acbfb4,,,,,,,,,NAN,,NAN,,0.0,144.0,144.0,144.0,1.0,145.0,Charlie,Acc,Participant_Images/6111234ac8cfa49e38acbfb4/6111234ac8cfa49e38acbfb4_Images/6111234ac8cfa49e38acbfb4_Image_30.jpeg,liked,3.602308302,,,,,,,,,,,,,
6111234ac8cfa49e38acbfb4,,,,,,,space,0.5992,NAN,,NAN,,0.0,145.0,145.0,145.0,1.0,146.0,Charlie,Acc,Participant_Images/6111234ac8cfa49e38acbfb4/6111234ac8cfa49e38acbfb4_Images/6111234ac8cfa49e38acbfb4_Image_14.jpeg,liked,4.106391878,,,,,,,,,,,,,
6111234ac8cfa49e38acbfb4,,,,,,,space,0.4653,NAN,,NAN,,0.0,146.0,146.0,146.0,1.0,147.0,Charlie,Acc,Participant_Images/6111234ac8cfa49e38acbfb4/6111234ac8cfa49e38acbfb4_Images/6111234ac8cfa49e38acbfb4_Image_1.jpeg,did not like,3.799433026,,,,,,,,,,,,,
6111234ac8cfa49e38acbfb4,,,,,,,space,0.5057,NAN,,NAN,,0.0,147.0,147.0,147.0,1.0,148.0,Charlie,Acc,Participant_Images/6111234ac8cfa49e38acbfb4/6111234ac8cfa49e38acbfb4_Images/6111234ac8cfa49e38acbfb4_Image_16.jpeg,did not like,5.246980764,,,,,,,,,,,,,
6111234ac8cfa49e38acbfb4,,,,,,,space,0.8666,NAN,,NAN,,0.0,148.0,148.0,148.0,1.0,149.0,Charlie,Acc,Participant_Images/6111234ac8cfa49e38acbfb4/6111234ac8cfa49e38acbfb4_Images/6111234ac8cfa49e38acbfb4_Image_10.jpeg,did not like,3.30081769,,,,,,,,,,,,,
6111234ac8cfa49e38acbfb4,,,,,,,,,,,,,,,,,,,,,,,,c,0.0,space,2.0577,0.0,0.0,0.0,0.0,1.0,1.1208,,,
6111234ac8cfa49e38acbfb4,,,,,,,,,1,,1,,0.0,149.0,149.0,149.0,1.0,150.0,Charlie,Acc,Participant_Images/6111234ac8cfa49e38acbfb4/6111234ac8cfa49e38acbfb4_Images/6111234ac8cfa49e38acbfb4_Image_11.jpeg,liked,1.661473164,,,,,,,,,,,,,
6111234ac8cfa49e38acbfb4,,,,,,,,,,,,,,,,,,,,,,,,,,,,,,,,,,,space,4.3525
