endwelcomescreen_keys.keys,endwelcomescreen_keys.rt,endinstructionscreen_keys.keys,endinstructionscreen_keys.rt,endpartnermatch_keys.keys,endpartnermatch_keys.rt,sharenextphoto_key.keys,sharenextphoto_key.rt,salience_rating,key_resp.keys,stress_level,stresslevel_keypress.keys,entiretaskloop.thisRepN,entiretaskloop.thisTrialN,entiretaskloop.thisN,entiretaskloop.thisIndex,entiretaskloop.ran,TrialNumber,Partner,Condition,Photos,Feedback,FeedbackWait,choice_keys.keys,playlottery,choice_keys.rt,resumeafterlottery_keys.keys,resumeafterlottery_keys.rt,lotteryloop.thisRepN,lotteryloop.thisTrialN,lotteryloop.thisN,lotteryloop.thisIndex,lotteryloop.ran,end_screen_keys.keys,end_screen_keys.rt
space,6.1985,,,,,,,,,,,,,,,,,,,,,,,,,,,,,,,,,
,,,,,,,,,,,,,,,,,,,,,,,,,,,,,,,,,,
,,space,6.2372,,,,,,,,,,,,,,,,,,,,,,,,,,,,,,,
,,,,space,1.6765,space,0.8664,NAN,,NAN,,0,0,0,0,1,1,Alex,Neutral,Participant_Images/61338374ecef87bfdfd1c7bb/61338374ecef87bfdfd1c7bb_Images/61338374ecef87bfdfd1c7bb_Image_6.jpeg,liked,3.613205605,,,,,,,,,,,,
,,,,,,space,0.9256,NAN,,NAN,,0,1,1,1,1,2,Alex,Neutral,Participant_Images/61338374ecef87bfdfd1c7bb/61338374ecef87bfdfd1c7bb_Images/61338374ecef87bfdfd1c7bb_Image_26.jpeg,did not like,4.988446431,,,,,,,,,,,,
,,,,,,space,0.5179,NAN,,NAN,,0,2,2,2,1,3,Alex,Neutral,Participant_Images/61338374ecef87bfdfd1c7bb/61338374ecef87bfdfd1c7bb_Images/61338374ecef87bfdfd1c7bb_Image_14.jpeg,did not like,3.470791822,,,,,,,,,,,,
,,,,,,space,0.5256,NAN,,NAN,,0,3,3,3,1,4,Alex,Neutral,Participant_Images/61338374ecef87bfdfd1c7bb/61338374ecef87bfdfd1c7bb_Images/61338374ecef87bfdfd1c7bb_Image_23.jpeg,liked,3.820572462,,,,,,,,,,,,
,,,,,,,,,,,,,,,,,,,,,,,c,0,3.2491,space,0.8557,0,0,0,0,1,,
,,,,,,,,NAN,,NAN,,0,4,4,4,1,5,Alex,Neutral,Participant_Images/61338374ecef87bfdfd1c7bb/61338374ecef87bfdfd1c7bb_Images/61338374ecef87bfdfd1c7bb_Image_21.jpeg,liked,2.455989137,,,,,,,,,,,,
,,,,,,space,0.9289,NAN,,NAN,,0,5,5,5,1,6,Alex,Neutral,Participant_Images/61338374ecef87bfdfd1c7bb/61338374ecef87bfdfd1c7bb_Images/61338374ecef87bfdfd1c7bb_Image_24.jpeg,liked,3.79605092,,,,,,,,,,,,
,,,,,,space,0.8004,NAN,,NAN,,0,6,6,6,1,7,Alex,Neutral,Participant_Images/61338374ecef87bfdfd1c7bb/61338374ecef87bfdfd1c7bb_Images/61338374ecef87bfdfd1c7bb_Image_1.jpeg,liked,3.562416326,,,,,,,,,,,,
,,,,,,space,1.2313,NAN,,NAN,,0,7,7,7,1,8,Alex,Neutral,Participant_Images/61338374ecef87bfdfd1c7bb/61338374ecef87bfdfd1c7bb_Images/61338374ecef87bfdfd1c7bb_Image_2.jpeg,did not like,2.843822497,,,,,,,,,,,,
,,,,,,space,0.4605,NAN,,NAN,,0,8,8,8,1,9,Alex,Neutral,Participant_Images/61338374ecef87bfdfd1c7bb/61338374ecef87bfdfd1c7bb_Images/61338374ecef87bfdfd1c7bb_Image_7.jpeg,liked,3.546495948,,,,,,,,,,,,
,,,,,,,,,,,,,,,,,,,,,,,c,0,1.6135,space,1.1156,0,0,0,0,1,,
,,,,,,,,NAN,,NAN,,0,9,9,9,1,10,Alex,Neutral,Participant_Images/61338374ecef87bfdfd1c7bb/61338374ecef87bfdfd1c7bb_Images/61338374ecef87bfdfd1c7bb_Image_28.jpeg,liked,1.672012706,,,,,,,,,,,,
,,,,,,space,0.7018,NAN,,NAN,,0,10,10,10,1,11,Alex,Neutral,Participant_Images/61338374ecef87bfdfd1c7bb/61338374ecef87bfdfd1c7bb_Images/61338374ecef87bfdfd1c7bb_Image_12.jpeg,did not like,4.942172136,,,,,,,,,,,,
,,,,,,space,0.757,NAN,,NAN,,0,11,11,11,1,12,Alex,Neutral,Participant_Images/61338374ecef87bfdfd1c7bb/61338374ecef87bfdfd1c7bb_Images/61338374ecef87bfdfd1c7bb_Image_4.jpeg,did not like,2.50187214,,,,,,,,,,,,
,,,,,,space,0.6826,NAN,,NAN,,0,12,12,12,1,13,Alex,Neutral,Participant_Images/61338374ecef87bfdfd1c7bb/61338374ecef87bfdfd1c7bb_Images/61338374ecef87bfdfd1c7bb_Image_20.jpeg,liked,2.071164779,,,,,,,,,,,,
,,,,,,space,0.9135,NAN,,NAN,,0,13,13,13,1,14,Alex,Neutral,Participant_Images/61338374ecef87bfdfd1c7bb/61338374ecef87bfdfd1c7bb_Images/61338374ecef87bfdfd1c7bb_Image_13.jpeg,did not like,5.336503566,,,,,,,,,,,,
,,,,,,,,,,,,,,,,,,,,,,,c,0,1.5075,space,4.9173,0,0,0,0,1,,
,,,,,,,,NAN,,NAN,,0,14,14,14,1,15,Alex,Neutral,Participant_Images/61338374ecef87bfdfd1c7bb/61338374ecef87bfdfd1c7bb_Images/61338374ecef87bfdfd1c7bb_Image_19.jpeg,did not like,2.642157193,,,,,,,,,,,,
,,,,,,space,1.5642,NAN,,NAN,,0,15,15,15,1,16,Alex,Neutral,Participant_Images/61338374ecef87bfdfd1c7bb/61338374ecef87bfdfd1c7bb_Images/61338374ecef87bfdfd1c7bb_Image_18.jpeg,did not like,4.456234322,,,,,,,,,,,,
,,,,,,space,0.7043,NAN,,NAN,,0,16,16,16,1,17,Alex,Neutral,Participant_Images/61338374ecef87bfdfd1c7bb/61338374ecef87bfdfd1c7bb_Images/61338374ecef87bfdfd1c7bb_Image_22.jpeg,did not like,4.438512181,,,,,,,,,,,,
,,,,,,space,0.5462,NAN,,NAN,,0,17,17,17,1,18,Alex,Neutral,Participant_Images/61338374ecef87bfdfd1c7bb/61338374ecef87bfdfd1c7bb_Images/61338374ecef87bfdfd1c7bb_Image_15.jpeg,did not like,2.682944783,,,,,,,,,,,,
,,,,,,space,0.395,NAN,,NAN,,0,18,18,18,1,19,Alex,Neutral,Participant_Images/61338374ecef87bfdfd1c7bb/61338374ecef87bfdfd1c7bb_Images/61338374ecef87bfdfd1c7bb_Image_10.jpeg,liked,4.51984296,,,,,,,,,,,,
,,,,,,,,,,,,,,,,,,,,,,,c,0,1.4194,space,0.5376,0,0,0,0,1,,
,,,,,,,,NAN,,NAN,,0,19,19,19,1,20,Alex,Neutral,Participant_Images/61338374ecef87bfdfd1c7bb/61338374ecef87bfdfd1c7bb_Images/61338374ecef87bfdfd1c7bb_Image_16.jpeg,did not like,3.195382774,,,,,,,,,,,,
,,,,,,space,0.5927,NAN,,NAN,,0,20,20,20,1,21,Alex,Neutral,Participant_Images/61338374ecef87bfdfd1c7bb/61338374ecef87bfdfd1c7bb_Images/61338374ecef87bfdfd1c7bb_Image_11.jpeg,liked,1.779333479,,,,,,,,,,,,
,,,,,,space,0.7384,NAN,,NAN,,0,21,21,21,1,22,Alex,Neutral,Participant_Images/61338374ecef87bfdfd1c7bb/61338374ecef87bfdfd1c7bb_Images/61338374ecef87bfdfd1c7bb_Image_9.jpeg,did not like,4.312468682,,,,,,,,,,,,
,,,,,,space,0.3701,NAN,,NAN,,0,22,22,22,1,23,Alex,Neutral,Participant_Images/61338374ecef87bfdfd1c7bb/61338374ecef87bfdfd1c7bb_Images/61338374ecef87bfdfd1c7bb_Image_30.jpeg,liked,4.940433059,,,,,,,,,,,,
,,,,,,space,0.6999,NAN,,NAN,,0,23,23,23,1,24,Alex,Neutral,Participant_Images/61338374ecef87bfdfd1c7bb/61338374ecef87bfdfd1c7bb_Images/61338374ecef87bfdfd1c7bb_Image_29.jpeg,liked,2.7105123,,,,,,,,,,,,
,,,,,,,,,,,,,,,,,,,,,,,c,0,1.1412,space,1.0844,0,0,0,0,1,,
,,,,,,,,NAN,,NAN,,0,24,24,24,1,25,Alex,Neutral,Participant_Images/61338374ecef87bfdfd1c7bb/61338374ecef87bfdfd1c7bb_Images/61338374ecef87bfdfd1c7bb_Image_17.jpeg,did not like,3.602308302,,,,,,,,,,,,
,,,,,,space,0.7708,NAN,,NAN,,0,25,25,25,1,26,Alex,Neutral,Participant_Images/61338374ecef87bfdfd1c7bb/61338374ecef87bfdfd1c7bb_Images/61338374ecef87bfdfd1c7bb_Image_3.jpeg,liked,4.106391878,,,,,,,,,,,,
,,,,,,space,0.7211,NAN,,NAN,,0,26,26,26,1,27,Alex,Neutral,Participant_Images/61338374ecef87bfdfd1c7bb/61338374ecef87bfdfd1c7bb_Images/61338374ecef87bfdfd1c7bb_Image_27.jpeg,liked,3.799433026,,,,,,,,,,,,
,,,,,,space,0.5251,NAN,,NAN,,0,27,27,27,1,28,Alex,Neutral,Participant_Images/61338374ecef87bfdfd1c7bb/61338374ecef87bfdfd1c7bb_Images/61338374ecef87bfdfd1c7bb_Image_8.jpeg,did not like,5.246980764,,,,,,,,,,,,
,,,,,,space,0.7214,NAN,,NAN,,0,28,28,28,1,29,Alex,Neutral,Participant_Images/61338374ecef87bfdfd1c7bb/61338374ecef87bfdfd1c7bb_Images/61338374ecef87bfdfd1c7bb_Image_5.jpeg,did not like,3.30081769,,,,,,,,,,,,
,,,,,,,,,,,,,,,,,,,,,,,c,0,1.6916,space,0.0854,0,0,0,0,1,,
,,,,,,,,3,,6,,0,29,29,29,1,30,Alex,Neutral,Participant_Images/61338374ecef87bfdfd1c7bb/61338374ecef87bfdfd1c7bb_Images/61338374ecef87bfdfd1c7bb_Image_25.jpeg,liked,1.661473164,,,,,,,,,,,,
,,,,space,1.2903,space,0.5529,NAN,,NAN,,0,30,30,30,1,31,Riley,Rej,Participant_Images/61338374ecef87bfdfd1c7bb/61338374ecef87bfdfd1c7bb_Images/61338374ecef87bfdfd1c7bb_Image_10.jpeg,liked,3.613205605,,,,,,,,,,,,
,,,,,,space,0.3563,NAN,,NAN,,0,31,31,31,1,32,Riley,Rej,Participant_Images/61338374ecef87bfdfd1c7bb/61338374ecef87bfdfd1c7bb_Images/61338374ecef87bfdfd1c7bb_Image_19.jpeg,liked,4.988446431,,,,,,,,,,,,
,,,,,,space,0.5323,NAN,,NAN,,0,32,32,32,1,33,Riley,Rej,Participant_Images/61338374ecef87bfdfd1c7bb/61338374ecef87bfdfd1c7bb_Images/61338374ecef87bfdfd1c7bb_Image_11.jpeg,liked,3.470791822,,,,,,,,,,,,
,,,,,,space,1.0582,NAN,,NAN,,0,33,33,33,1,34,Riley,Rej,Participant_Images/61338374ecef87bfdfd1c7bb/61338374ecef87bfdfd1c7bb_Images/61338374ecef87bfdfd1c7bb_Image_23.jpeg,did not like,3.820572462,,,,,,,,,,,,
,,,,,,,,,,,,,,,,,,,,,,,c,0,2.417,space,2.4651,0,0,0,0,1,,
,,,,,,,,NAN,,NAN,,0,34,34,34,1,35,Riley,Rej,Participant_Images/61338374ecef87bfdfd1c7bb/61338374ecef87bfdfd1c7bb_Images/61338374ecef87bfdfd1c7bb_Image_16.jpeg,liked,2.455989137,,,,,,,,,,,,
,,,,,,space,0.9301,NAN,,NAN,,0,35,35,35,1,36,Riley,Rej,Participant_Images/61338374ecef87bfdfd1c7bb/61338374ecef87bfdfd1c7bb_Images/61338374ecef87bfdfd1c7bb_Image_22.jpeg,did not like,3.79605092,,,,,,,,,,,,
,,,,,,space,2.5393,NAN,,NAN,,0,36,36,36,1,37,Riley,Rej,Participant_Images/61338374ecef87bfdfd1c7bb/61338374ecef87bfdfd1c7bb_Images/61338374ecef87bfdfd1c7bb_Image_24.jpeg,did not like,3.562416326,,,,,,,,,,,,
,,,,,,space,5.5132,NAN,,NAN,,0,37,37,37,1,38,Riley,Rej,Participant_Images/61338374ecef87bfdfd1c7bb/61338374ecef87bfdfd1c7bb_Images/61338374ecef87bfdfd1c7bb_Image_13.jpeg,did not like,2.843822497,,,,,,,,,,,,
,,,,,,space,1.5541,NAN,,NAN,,0,38,38,38,1,39,Riley,Rej,Participant_Images/61338374ecef87bfdfd1c7bb/61338374ecef87bfdfd1c7bb_Images/61338374ecef87bfdfd1c7bb_Image_26.jpeg,liked,3.546495948,,,,,,,,,,,,
,,,,,,,,,,,,,,,,,,,,,,,c,0,2.9697,space,2.1776,0,0,0,0,1,,
,,,,,,,,NAN,,NAN,,0,39,39,39,1,40,Riley,Rej,Participant_Images/61338374ecef87bfdfd1c7bb/61338374ecef87bfdfd1c7bb_Images/61338374ecef87bfdfd1c7bb_Image_1.jpeg,liked,1.672012706,,,,,,,,,,,,
,,,,,,space,0.8665,NAN,,NAN,,0,40,40,40,1,41,Riley,Rej,Participant_Images/61338374ecef87bfdfd1c7bb/61338374ecef87bfdfd1c7bb_Images/61338374ecef87bfdfd1c7bb_Image_18.jpeg,did not like,4.942172136,,,,,,,,,,,,
,,,,,,space,1.6395,NAN,,NAN,,0,41,41,41,1,42,Riley,Rej,Participant_Images/61338374ecef87bfdfd1c7bb/61338374ecef87bfdfd1c7bb_Images/61338374ecef87bfdfd1c7bb_Image_15.jpeg,did not like,2.50187214,,,,,,,,,,,,
,,,,,,space,0.7002,NAN,,NAN,,0,42,42,42,1,43,Riley,Rej,Participant_Images/61338374ecef87bfdfd1c7bb/61338374ecef87bfdfd1c7bb_Images/61338374ecef87bfdfd1c7bb_Image_3.jpeg,did not like,2.071164779,,,,,,,,,,,,
,,,,,,space,1.4715,NAN,,NAN,,0,43,43,43,1,44,Riley,Rej,Participant_Images/61338374ecef87bfdfd1c7bb/61338374ecef87bfdfd1c7bb_Images/61338374ecef87bfdfd1c7bb_Image_9.jpeg,did not like,5.336503566,,,,,,,,,,,,
,,,,,,,,,,,,,,,,,,,,,,,c,0,2.273,space,1.9232,0,0,0,0,1,,
,,,,,,,,NAN,,NAN,,0,44,44,44,1,45,Riley,Rej,Participant_Images/61338374ecef87bfdfd1c7bb/61338374ecef87bfdfd1c7bb_Images/61338374ecef87bfdfd1c7bb_Image_2.jpeg,did not like,2.642157193,,,,,,,,,,,,
,,,,,,space,1.0699,NAN,,NAN,,0,45,45,45,1,46,Riley,Rej,Participant_Images/61338374ecef87bfdfd1c7bb/61338374ecef87bfdfd1c7bb_Images/61338374ecef87bfdfd1c7bb_Image_28.jpeg,did not like,4.456234322,,,,,,,,,,,,
,,,,,,space,1.4265,NAN,,NAN,,0,46,46,46,1,47,Riley,Rej,Participant_Images/61338374ecef87bfdfd1c7bb/61338374ecef87bfdfd1c7bb_Images/61338374ecef87bfdfd1c7bb_Image_5.jpeg,did not like,4.438512181,,,,,,,,,,,,
,,,,,,space,2.5868,NAN,,NAN,,0,47,47,47,1,48,Riley,Rej,Participant_Images/61338374ecef87bfdfd1c7bb/61338374ecef87bfdfd1c7bb_Images/61338374ecef87bfdfd1c7bb_Image_6.jpeg,did not like,2.682944783,,,,,,,,,,,,
,,,,,,space,3.574,NAN,,NAN,,0,48,48,48,1,49,Riley,Rej,Participant_Images/61338374ecef87bfdfd1c7bb/61338374ecef87bfdfd1c7bb_Images/61338374ecef87bfdfd1c7bb_Image_14.jpeg,did not like,4.51984296,,,,,,,,,,,,
,,,,,,,,,,,,,,,,,,,,,,,c,0,1.9861,space,4.4178,0,0,0,0,1,,
,,,,,,,,NAN,,NAN,,0,49,49,49,1,50,Riley,Rej,Participant_Images/61338374ecef87bfdfd1c7bb/61338374ecef87bfdfd1c7bb_Images/61338374ecef87bfdfd1c7bb_Image_4.jpeg,did not like,3.195382774,,,,,,,,,,,,
,,,,,,space,1.9655,NAN,,NAN,,0,50,50,50,1,51,Riley,Rej,Participant_Images/61338374ecef87bfdfd1c7bb/61338374ecef87bfdfd1c7bb_Images/61338374ecef87bfdfd1c7bb_Image_25.jpeg,liked,1.779333479,,,,,,,,,,,,
,,,,,,space,1.8062,NAN,,NAN,,0,51,51,51,1,52,Riley,Rej,Participant_Images/61338374ecef87bfdfd1c7bb/61338374ecef87bfdfd1c7bb_Images/61338374ecef87bfdfd1c7bb_Image_29.jpeg,did not like,4.312468682,,,,,,,,,,,,
,,,,,,space,0.5398,NAN,,NAN,,0,52,52,52,1,53,Riley,Rej,Participant_Images/61338374ecef87bfdfd1c7bb/61338374ecef87bfdfd1c7bb_Images/61338374ecef87bfdfd1c7bb_Image_30.jpeg,did not like,4.940433059,,,,,,,,,,,,
,,,,,,space,0.4457,NAN,,NAN,,0,53,53,53,1,54,Riley,Rej,Participant_Images/61338374ecef87bfdfd1c7bb/61338374ecef87bfdfd1c7bb_Images/61338374ecef87bfdfd1c7bb_Image_12.jpeg,did not like,2.7105123,,,,,,,,,,,,
,,,,,,,,,,,,,,,,,,,,,,,c,0,1.5979,space,3.2585,0,0,0,0,1,,
,,,,,,,,NAN,,NAN,,0,54,54,54,1,55,Riley,Rej,Participant_Images/61338374ecef87bfdfd1c7bb/61338374ecef87bfdfd1c7bb_Images/61338374ecef87bfdfd1c7bb_Image_21.jpeg,did not like,3.602308302,,,,,,,,,,,,
,,,,,,space,1.0918,NAN,,NAN,,0,55,55,55,1,56,Riley,Rej,Participant_Images/61338374ecef87bfdfd1c7bb/61338374ecef87bfdfd1c7bb_Images/61338374ecef87bfdfd1c7bb_Image_17.jpeg,liked,4.106391878,,,,,,,,,,,,
,,,,,,space,0.9057,NAN,,NAN,,0,56,56,56,1,57,Riley,Rej,Participant_Images/61338374ecef87bfdfd1c7bb/61338374ecef87bfdfd1c7bb_Images/61338374ecef87bfdfd1c7bb_Image_7.jpeg,did not like,3.799433026,,,,,,,,,,,,
,,,,,,space,2.1998,NAN,,NAN,,0,57,57,57,1,58,Riley,Rej,Participant_Images/61338374ecef87bfdfd1c7bb/61338374ecef87bfdfd1c7bb_Images/61338374ecef87bfdfd1c7bb_Image_8.jpeg,liked,5.246980764,,,,,,,,,,,,
,,,,,,space,1.7912,NAN,,NAN,,0,58,58,58,1,59,Riley,Rej,Participant_Images/61338374ecef87bfdfd1c7bb/61338374ecef87bfdfd1c7bb_Images/61338374ecef87bfdfd1c7bb_Image_20.jpeg,did not like,3.30081769,,,,,,,,,,,,
,,,,,,,,,,,,,,,,,,,,,,,c,0,1.7212,space,0.871,0,0,0,0,1,,
,,,,,,,,3,,6,,0,59,59,59,1,60,Riley,Rej,Participant_Images/61338374ecef87bfdfd1c7bb/61338374ecef87bfdfd1c7bb_Images/61338374ecef87bfdfd1c7bb_Image_27.jpeg,did not like,1.661473164,,,,,,,,,,,,
,,,,space,5.5677,space,1.807,NAN,,NAN,,0,60,60,60,1,61,Charlie,Acc,Participant_Images/61338374ecef87bfdfd1c7bb/61338374ecef87bfdfd1c7bb_Images/61338374ecef87bfdfd1c7bb_Image_4.jpeg,liked,3.613205605,,,,,,,,,,,,
,,,,,,space,4.6635,NAN,,NAN,,0,61,61,61,1,62,Charlie,Acc,Participant_Images/61338374ecef87bfdfd1c7bb/61338374ecef87bfdfd1c7bb_Images/61338374ecef87bfdfd1c7bb_Image_9.jpeg,liked,4.988446431,,,,,,,,,,,,
,,,,,,space,0.6661,NAN,,NAN,,0,62,62,62,1,63,Charlie,Acc,Participant_Images/61338374ecef87bfdfd1c7bb/61338374ecef87bfdfd1c7bb_Images/61338374ecef87bfdfd1c7bb_Image_29.jpeg,liked,3.470791822,,,,,,,,,,,,
,,,,,,space,1.4328,NAN,,NAN,,0,63,63,63,1,64,Charlie,Acc,Participant_Images/61338374ecef87bfdfd1c7bb/61338374ecef87bfdfd1c7bb_Images/61338374ecef87bfdfd1c7bb_Image_15.jpeg,liked,3.820572462,,,,,,,,,,,,
,,,,,,,,,,,,,,,,,,,,,,,c,0,3.3692,space,1.9471,0,0,0,0,1,,
,,,,,,,,NAN,,NAN,,0,64,64,64,1,65,Charlie,Acc,Participant_Images/61338374ecef87bfdfd1c7bb/61338374ecef87bfdfd1c7bb_Images/61338374ecef87bfdfd1c7bb_Image_1.jpeg,liked,2.455989137,,,,,,,,,,,,
,,,,,,space,1.9701,NAN,,NAN,,0,65,65,65,1,66,Charlie,Acc,Participant_Images/61338374ecef87bfdfd1c7bb/61338374ecef87bfdfd1c7bb_Images/61338374ecef87bfdfd1c7bb_Image_30.jpeg,liked,3.79605092,,,,,,,,,,,,
,,,,,,space,0.7837,NAN,,NAN,,0,66,66,66,1,67,Charlie,Acc,Participant_Images/61338374ecef87bfdfd1c7bb/61338374ecef87bfdfd1c7bb_Images/61338374ecef87bfdfd1c7bb_Image_8.jpeg,liked,3.562416326,,,,,,,,,,,,
,,,,,,space,1.427,NAN,,NAN,,0,67,67,67,1,68,Charlie,Acc,Participant_Images/61338374ecef87bfdfd1c7bb/61338374ecef87bfdfd1c7bb_Images/61338374ecef87bfdfd1c7bb_Image_13.jpeg,liked,2.843822497,,,,,,,,,,,,
,,,,,,space,1.9931,NAN,,NAN,,0,68,68,68,1,69,Charlie,Acc,Participant_Images/61338374ecef87bfdfd1c7bb/61338374ecef87bfdfd1c7bb_Images/61338374ecef87bfdfd1c7bb_Image_16.jpeg,did not like,3.546495948,,,,,,,,,,,,
,,,,,,,,,,,,,,,,,,,,,,,c,0,1.29,space,1.4395,0,0,0,0,1,,
,,,,,,,,NAN,,NAN,,0,69,69,69,1,70,Charlie,Acc,Participant_Images/61338374ecef87bfdfd1c7bb/61338374ecef87bfdfd1c7bb_Images/61338374ecef87bfdfd1c7bb_Image_5.jpeg,liked,1.672012706,,,,,,,,,,,,
,,,,,,space,1.4546,NAN,,NAN,,0,70,70,70,1,71,Charlie,Acc,Participant_Images/61338374ecef87bfdfd1c7bb/61338374ecef87bfdfd1c7bb_Images/61338374ecef87bfdfd1c7bb_Image_28.jpeg,did not like,4.942172136,,,,,,,,,,,,
,,,,,,space,1.1152,NAN,,NAN,,0,71,71,71,1,72,Charlie,Acc,Participant_Images/61338374ecef87bfdfd1c7bb/61338374ecef87bfdfd1c7bb_Images/61338374ecef87bfdfd1c7bb_Image_25.jpeg,liked,2.50187214,,,,,,,,,,,,
,,,,,,space,0.7263,NAN,,NAN,,0,72,72,72,1,73,Charlie,Acc,Participant_Images/61338374ecef87bfdfd1c7bb/61338374ecef87bfdfd1c7bb_Images/61338374ecef87bfdfd1c7bb_Image_7.jpeg,liked,2.071164779,,,,,,,,,,,,
,,,,,,space,0.3997,NAN,,NAN,,0,73,73,73,1,74,Charlie,Acc,Participant_Images/61338374ecef87bfdfd1c7bb/61338374ecef87bfdfd1c7bb_Images/61338374ecef87bfdfd1c7bb_Image_22.jpeg,liked,5.336503566,,,,,,,,,,,,
,,,,,,,,,,,,,,,,,,,,,,,c,0,2.2223,space,1.1112,0,0,0,0,1,,
,,,,,,,,NAN,,NAN,,0,74,74,74,1,75,Charlie,Acc,Participant_Images/61338374ecef87bfdfd1c7bb/61338374ecef87bfdfd1c7bb_Images/61338374ecef87bfdfd1c7bb_Image_2.jpeg,did not like,2.642157193,,,,,,,,,,,,
,,,,,,space,0.7676,NAN,,NAN,,0,75,75,75,1,76,Charlie,Acc,Participant_Images/61338374ecef87bfdfd1c7bb/61338374ecef87bfdfd1c7bb_Images/61338374ecef87bfdfd1c7bb_Image_20.jpeg,liked,4.456234322,,,,,,,,,,,,
,,,,,,space,1.0885,NAN,,NAN,,0,76,76,76,1,77,Charlie,Acc,Participant_Images/61338374ecef87bfdfd1c7bb/61338374ecef87bfdfd1c7bb_Images/61338374ecef87bfdfd1c7bb_Image_12.jpeg,liked,4.438512181,,,,,,,,,,,,
,,,,,,space,3.6792,NAN,,NAN,,0,77,77,77,1,78,Charlie,Acc,Participant_Images/61338374ecef87bfdfd1c7bb/61338374ecef87bfdfd1c7bb_Images/61338374ecef87bfdfd1c7bb_Image_3.jpeg,did not like,2.682944783,,,,,,,,,,,,
,,,,,,space,0.727,NAN,,NAN,,0,78,78,78,1,79,Charlie,Acc,Participant_Images/61338374ecef87bfdfd1c7bb/61338374ecef87bfdfd1c7bb_Images/61338374ecef87bfdfd1c7bb_Image_27.jpeg,did not like,4.51984296,,,,,,,,,,,,
,,,,,,,,,,,,,,,,,,,,,,,c,0,3.1673,space,1.4013,0,0,0,0,1,,
,,,,,,,,NAN,,NAN,,0,79,79,79,1,80,Charlie,Acc,Participant_Images/61338374ecef87bfdfd1c7bb/61338374ecef87bfdfd1c7bb_Images/61338374ecef87bfdfd1c7bb_Image_14.jpeg,liked,3.195382774,,,,,,,,,,,,
,,,,,,space,1.8368,NAN,,NAN,,0,80,80,80,1,81,Charlie,Acc,Participant_Images/61338374ecef87bfdfd1c7bb/61338374ecef87bfdfd1c7bb_Images/61338374ecef87bfdfd1c7bb_Image_26.jpeg,liked,1.779333479,,,,,,,,,,,,
,,,,,,space,1.4147,NAN,,NAN,,0,81,81,81,1,82,Charlie,Acc,Participant_Images/61338374ecef87bfdfd1c7bb/61338374ecef87bfdfd1c7bb_Images/61338374ecef87bfdfd1c7bb_Image_17.jpeg,did not like,4.312468682,,,,,,,,,,,,
,,,,,,space,1.0686,NAN,,NAN,,0,82,82,82,1,83,Charlie,Acc,Participant_Images/61338374ecef87bfdfd1c7bb/61338374ecef87bfdfd1c7bb_Images/61338374ecef87bfdfd1c7bb_Image_24.jpeg,liked,4.940433059,,,,,,,,,,,,
,,,,,,space,1.6743,NAN,,NAN,,0,83,83,83,1,84,Charlie,Acc,Participant_Images/61338374ecef87bfdfd1c7bb/61338374ecef87bfdfd1c7bb_Images/61338374ecef87bfdfd1c7bb_Image_23.jpeg,did not like,2.7105123,,,,,,,,,,,,
,,,,,,,,,,,,,,,,,,,,,,,c,0,2.0478,space,0.9059,0,0,0,0,1,,
,,,,,,,,NAN,,NAN,,0,84,84,84,1,85,Charlie,Acc,Participant_Images/61338374ecef87bfdfd1c7bb/61338374ecef87bfdfd1c7bb_Images/61338374ecef87bfdfd1c7bb_Image_18.jpeg,did not like,3.602308302,,,,,,,,,,,,
,,,,,,space,2.1583,NAN,,NAN,,0,85,85,85,1,86,Charlie,Acc,Participant_Images/61338374ecef87bfdfd1c7bb/61338374ecef87bfdfd1c7bb_Images/61338374ecef87bfdfd1c7bb_Image_10.jpeg,liked,4.106391878,,,,,,,,,,,,
,,,,,,space,1.1269,NAN,,NAN,,0,86,86,86,1,87,Charlie,Acc,Participant_Images/61338374ecef87bfdfd1c7bb/61338374ecef87bfdfd1c7bb_Images/61338374ecef87bfdfd1c7bb_Image_19.jpeg,liked,3.799433026,,,,,,,,,,,,
,,,,,,space,0.2422,NAN,,NAN,,0,87,87,87,1,88,Charlie,Acc,Participant_Images/61338374ecef87bfdfd1c7bb/61338374ecef87bfdfd1c7bb_Images/61338374ecef87bfdfd1c7bb_Image_6.jpeg,liked,5.246980764,,,,,,,,,,,,
,,,,,,space,1.0203,NAN,,NAN,,0,88,88,88,1,89,Charlie,Acc,Participant_Images/61338374ecef87bfdfd1c7bb/61338374ecef87bfdfd1c7bb_Images/61338374ecef87bfdfd1c7bb_Image_21.jpeg,did not like,3.30081769,,,,,,,,,,,,
,,,,,,,,,,,,,,,,,,,,,,,c,0,1.6794,space,1.0363,0,0,0,0,1,,
,,,,,,,,3,,7,,0,89,89,89,1,90,Charlie,Acc,Participant_Images/61338374ecef87bfdfd1c7bb/61338374ecef87bfdfd1c7bb_Images/61338374ecef87bfdfd1c7bb_Image_11.jpeg,liked,1.661473164,,,,,,,,,,,,
,,,,space,1.1047,space,1.2131,NAN,,NAN,,0,90,90,90,1,91,Taylor,Acc,Participant_Images/61338374ecef87bfdfd1c7bb/61338374ecef87bfdfd1c7bb_Images/61338374ecef87bfdfd1c7bb_Image_20.jpeg,liked,3.613205605,,,,,,,,,,,,
,,,,,,space,3.7459,NAN,,NAN,,0,91,91,91,1,92,Taylor,Acc,Participant_Images/61338374ecef87bfdfd1c7bb/61338374ecef87bfdfd1c7bb_Images/61338374ecef87bfdfd1c7bb_Image_2.jpeg,liked,4.988446431,,,,,,,,,,,,
,,,,,,space,0.9466,NAN,,NAN,,0,92,92,92,1,93,Taylor,Acc,Participant_Images/61338374ecef87bfdfd1c7bb/61338374ecef87bfdfd1c7bb_Images/61338374ecef87bfdfd1c7bb_Image_5.jpeg,did not like,3.470791822,,,,,,,,,,,,
,,,,,,space,5.0989,NAN,,NAN,,0,93,93,93,1,94,Taylor,Acc,Participant_Images/61338374ecef87bfdfd1c7bb/61338374ecef87bfdfd1c7bb_Images/61338374ecef87bfdfd1c7bb_Image_26.jpeg,liked,3.820572462,,,,,,,,,,,,
,,,,,,,,,,,,,,,,,,,,,,,,999,,space,2.6876,0,0,0,0,1,,
,,,,,,,,NAN,,NAN,,0,94,94,94,1,95,Taylor,Acc,Participant_Images/61338374ecef87bfdfd1c7bb/61338374ecef87bfdfd1c7bb_Images/61338374ecef87bfdfd1c7bb_Image_25.jpeg,did not like,2.455989137,,,,,,,,,,,,
,,,,,,space,1.5869,NAN,,NAN,,0,95,95,95,1,96,Taylor,Acc,Participant_Images/61338374ecef87bfdfd1c7bb/61338374ecef87bfdfd1c7bb_Images/61338374ecef87bfdfd1c7bb_Image_12.jpeg,did not like,3.79605092,,,,,,,,,,,,
,,,,,,space,1.6358,NAN,,NAN,,0,96,96,96,1,97,Taylor,Acc,Participant_Images/61338374ecef87bfdfd1c7bb/61338374ecef87bfdfd1c7bb_Images/61338374ecef87bfdfd1c7bb_Image_19.jpeg,liked,3.562416326,,,,,,,,,,,,
,,,,,,space,0.3786,NAN,,NAN,,0,97,97,97,1,98,Taylor,Acc,Participant_Images/61338374ecef87bfdfd1c7bb/61338374ecef87bfdfd1c7bb_Images/61338374ecef87bfdfd1c7bb_Image_15.jpeg,liked,2.843822497,,,,,,,,,,,,
,,,,,,space,1.6947,NAN,,NAN,,0,98,98,98,1,99,Taylor,Acc,Participant_Images/61338374ecef87bfdfd1c7bb/61338374ecef87bfdfd1c7bb_Images/61338374ecef87bfdfd1c7bb_Image_4.jpeg,liked,3.546495948,,,,,,,,,,,,
,,,,,,,,,,,,,,,,,,,,,,,c,0,2.9994,space,1.598,0,0,0,0,1,,
,,,,,,,,NAN,,NAN,,0,99,99,99,1,100,Taylor,Acc,Participant_Images/61338374ecef87bfdfd1c7bb/61338374ecef87bfdfd1c7bb_Images/61338374ecef87bfdfd1c7bb_Image_14.jpeg,did not like,1.672012706,,,,,,,,,,,,
,,,,,,space,0.7185,NAN,,NAN,,0,100,100,100,1,101,Taylor,Acc,Participant_Images/61338374ecef87bfdfd1c7bb/61338374ecef87bfdfd1c7bb_Images/61338374ecef87bfdfd1c7bb_Image_17.jpeg,liked,4.942172136,,,,,,,,,,,,
,,,,,,space,0.7199,NAN,,NAN,,0,101,101,101,1,102,Taylor,Acc,Participant_Images/61338374ecef87bfdfd1c7bb/61338374ecef87bfdfd1c7bb_Images/61338374ecef87bfdfd1c7bb_Image_28.jpeg,did not like,2.50187214,,,,,,,,,,,,
,,,,,,space,2.0021,NAN,,NAN,,0,102,102,102,1,103,Taylor,Acc,Participant_Images/61338374ecef87bfdfd1c7bb/61338374ecef87bfdfd1c7bb_Images/61338374ecef87bfdfd1c7bb_Image_3.jpeg,liked,2.071164779,,,,,,,,,,,,
,,,,,,space,0.905,NAN,,NAN,,0,103,103,103,1,104,Taylor,Acc,Participant_Images/61338374ecef87bfdfd1c7bb/61338374ecef87bfdfd1c7bb_Images/61338374ecef87bfdfd1c7bb_Image_30.jpeg,liked,5.336503566,,,,,,,,,,,,
,,,,,,,,,,,,,,,,,,,,,,,c,0,3.877,space,1.2064,0,0,0,0,1,,
,,,,,,,,NAN,,NAN,,0,104,104,104,1,105,Taylor,Acc,Participant_Images/61338374ecef87bfdfd1c7bb/61338374ecef87bfdfd1c7bb_Images/61338374ecef87bfdfd1c7bb_Image_1.jpeg,liked,2.642157193,,,,,,,,,,,,
,,,,,,space,3.8128,NAN,,NAN,,0,105,105,105,1,106,Taylor,Acc,Participant_Images/61338374ecef87bfdfd1c7bb/61338374ecef87bfdfd1c7bb_Images/61338374ecef87bfdfd1c7bb_Image_16.jpeg,did not like,4.456234322,,,,,,,,,,,,
,,,,,,space,7.8549,NAN,,NAN,,0,106,106,106,1,107,Taylor,Acc,Participant_Images/61338374ecef87bfdfd1c7bb/61338374ecef87bfdfd1c7bb_Images/61338374ecef87bfdfd1c7bb_Image_11.jpeg,liked,4.438512181,,,,,,,,,,,,
,,,,,,space,3.31,NAN,,NAN,,0,107,107,107,1,108,Taylor,Acc,Participant_Images/61338374ecef87bfdfd1c7bb/61338374ecef87bfdfd1c7bb_Images/61338374ecef87bfdfd1c7bb_Image_7.jpeg,liked,2.682944783,,,,,,,,,,,,
,,,,,,space,5.3797,NAN,,NAN,,0,108,108,108,1,109,Taylor,Acc,Participant_Images/61338374ecef87bfdfd1c7bb/61338374ecef87bfdfd1c7bb_Images/61338374ecef87bfdfd1c7bb_Image_21.jpeg,liked,4.51984296,,,,,,,,,,,,
,,,,,,,,,,,,,,,,,,,,,,,c,0,2.0943,space,0.7964,0,0,0,0,1,,
,,,,,,,,NAN,,NAN,,0,109,109,109,1,110,Taylor,Acc,Participant_Images/61338374ecef87bfdfd1c7bb/61338374ecef87bfdfd1c7bb_Images/61338374ecef87bfdfd1c7bb_Image_24.jpeg,liked,3.195382774,,,,,,,,,,,,
,,,,,,space,0.5302,NAN,,NAN,,0,110,110,110,1,111,Taylor,Acc,Participant_Images/61338374ecef87bfdfd1c7bb/61338374ecef87bfdfd1c7bb_Images/61338374ecef87bfdfd1c7bb_Image_13.jpeg,did not like,1.779333479,,,,,,,,,,,,
,,,,,,space,1.2265,NAN,,NAN,,0,111,111,111,1,112,Taylor,Acc,Participant_Images/61338374ecef87bfdfd1c7bb/61338374ecef87bfdfd1c7bb_Images/61338374ecef87bfdfd1c7bb_Image_23.jpeg,did not like,4.312468682,,,,,,,,,,,,
,,,,,,space,5.4925,NAN,,NAN,,0,112,112,112,1,113,Taylor,Acc,Participant_Images/61338374ecef87bfdfd1c7bb/61338374ecef87bfdfd1c7bb_Images/61338374ecef87bfdfd1c7bb_Image_22.jpeg,liked,4.940433059,,,,,,,,,,,,
,,,,,,space,9.279,NAN,,NAN,,0,113,113,113,1,114,Taylor,Acc,Participant_Images/61338374ecef87bfdfd1c7bb/61338374ecef87bfdfd1c7bb_Images/61338374ecef87bfdfd1c7bb_Image_6.jpeg,liked,2.7105123,,,,,,,,,,,,
,,,,,,,,,,,,,,,,,,,,,,,,999,,space,1.7957,0,0,0,0,1,,
,,,,,,,,NAN,,NAN,,0,114,114,114,1,115,Taylor,Acc,Participant_Images/61338374ecef87bfdfd1c7bb/61338374ecef87bfdfd1c7bb_Images/61338374ecef87bfdfd1c7bb_Image_27.jpeg,liked,3.602308302,,,,,,,,,,,,
,,,,,,space,9.9104,NAN,,NAN,,0,115,115,115,1,116,Taylor,Acc,Participant_Images/61338374ecef87bfdfd1c7bb/61338374ecef87bfdfd1c7bb_Images/61338374ecef87bfdfd1c7bb_Image_9.jpeg,liked,4.106391878,,,,,,,,,,,,
,,,,,,space,0.5202,NAN,,NAN,,0,116,116,116,1,117,Taylor,Acc,Participant_Images/61338374ecef87bfdfd1c7bb/61338374ecef87bfdfd1c7bb_Images/61338374ecef87bfdfd1c7bb_Image_8.jpeg,liked,3.799433026,,,,,,,,,,,,
,,,,,,space,1.9761,NAN,,NAN,,0,117,117,117,1,118,Taylor,Acc,Participant_Images/61338374ecef87bfdfd1c7bb/61338374ecef87bfdfd1c7bb_Images/61338374ecef87bfdfd1c7bb_Image_29.jpeg,did not like,5.246980764,,,,,,,,,,,,
,,,,,,space,12.4119,NAN,,NAN,,0,118,118,118,1,119,Taylor,Acc,Participant_Images/61338374ecef87bfdfd1c7bb/61338374ecef87bfdfd1c7bb_Images/61338374ecef87bfdfd1c7bb_Image_10.jpeg,liked,3.30081769,,,,,,,,,,,,
,,,,,,,,,,,,,,,,,,,,,,,,999,,space,6.3507,0,0,0,0,1,,
,,,,,,,,2,,8,,0,119,119,119,1,120,Taylor,Acc,Participant_Images/61338374ecef87bfdfd1c7bb/61338374ecef87bfdfd1c7bb_Images/61338374ecef87bfdfd1c7bb_Image_18.jpeg,liked,1.661473164,,,,,,,,,,,,
,,,,space,1.3234,space,0.7989,NAN,,NAN,,0,120,120,120,1,121,Sam,Rej,Participant_Images/61338374ecef87bfdfd1c7bb/61338374ecef87bfdfd1c7bb_Images/61338374ecef87bfdfd1c7bb_Image_18.jpeg,liked,3.613205605,,,,,,,,,,,,
,,,,,,space,0.1796,NAN,,NAN,,0,121,121,121,1,122,Sam,Rej,Participant_Images/61338374ecef87bfdfd1c7bb/61338374ecef87bfdfd1c7bb_Images/61338374ecef87bfdfd1c7bb_Image_10.jpeg,did not like,4.988446431,,,,,,,,,,,,
,,,,,,space,4.2976,NAN,,NAN,,0,122,122,122,1,123,Sam,Rej,Participant_Images/61338374ecef87bfdfd1c7bb/61338374ecef87bfdfd1c7bb_Images/61338374ecef87bfdfd1c7bb_Image_1.jpeg,liked,3.470791822,,,,,,,,,,,,
,,,,,,space,4.2102,NAN,,NAN,,0,123,123,123,1,124,Sam,Rej,Participant_Images/61338374ecef87bfdfd1c7bb/61338374ecef87bfdfd1c7bb_Images/61338374ecef87bfdfd1c7bb_Image_14.jpeg,did not like,3.820572462,,,,,,,,,,,,
,,,,,,,,,,,,,,,,,,,,,,,,999,,space,2.2903,0,0,0,0,1,,
,,,,,,,,NAN,,NAN,,0,124,124,124,1,125,Sam,Rej,Participant_Images/61338374ecef87bfdfd1c7bb/61338374ecef87bfdfd1c7bb_Images/61338374ecef87bfdfd1c7bb_Image_19.jpeg,did not like,2.455989137,,,,,,,,,,,,
,,,,,,space,0.9755,NAN,,NAN,,0,125,125,125,1,126,Sam,Rej,Participant_Images/61338374ecef87bfdfd1c7bb/61338374ecef87bfdfd1c7bb_Images/61338374ecef87bfdfd1c7bb_Image_8.jpeg,did not like,3.79605092,,,,,,,,,,,,
,,,,,,space,7.3328,NAN,,NAN,,0,126,126,126,1,127,Sam,Rej,Participant_Images/61338374ecef87bfdfd1c7bb/61338374ecef87bfdfd1c7bb_Images/61338374ecef87bfdfd1c7bb_Image_17.jpeg,did not like,3.562416326,,,,,,,,,,,,
,,,,,,space,1.813,NAN,,NAN,,0,127,127,127,1,128,Sam,Rej,Participant_Images/61338374ecef87bfdfd1c7bb/61338374ecef87bfdfd1c7bb_Images/61338374ecef87bfdfd1c7bb_Image_20.jpeg,did not like,2.843822497,,,,,,,,,,,,
,,,,,,space,4.9561,NAN,,NAN,,0,128,128,128,1,129,Sam,Rej,Participant_Images/61338374ecef87bfdfd1c7bb/61338374ecef87bfdfd1c7bb_Images/61338374ecef87bfdfd1c7bb_Image_26.jpeg,did not like,3.546495948,,,,,,,,,,,,
,,,,,,,,,,,,,,,,,,,,,,,,999,,space,4.9956,0,0,0,0,1,,
,,,,,,,,NAN,,NAN,,0,129,129,129,1,130,Sam,Rej,Participant_Images/61338374ecef87bfdfd1c7bb/61338374ecef87bfdfd1c7bb_Images/61338374ecef87bfdfd1c7bb_Image_24.jpeg,did not like,1.672012706,,,,,,,,,,,,
,,,,,,space,0.5568,NAN,,NAN,,0,130,130,130,1,131,Sam,Rej,Participant_Images/61338374ecef87bfdfd1c7bb/61338374ecef87bfdfd1c7bb_Images/61338374ecef87bfdfd1c7bb_Image_6.jpeg,did not like,4.942172136,,,,,,,,,,,,
,,,,,,space,7.8509,NAN,,NAN,,0,131,131,131,1,132,Sam,Rej,Participant_Images/61338374ecef87bfdfd1c7bb/61338374ecef87bfdfd1c7bb_Images/61338374ecef87bfdfd1c7bb_Image_5.jpeg,did not like,2.50187214,,,,,,,,,,,,
,,,,,,space,2.7039,NAN,,NAN,,0,132,132,132,1,133,Sam,Rej,Participant_Images/61338374ecef87bfdfd1c7bb/61338374ecef87bfdfd1c7bb_Images/61338374ecef87bfdfd1c7bb_Image_30.jpeg,did not like,2.071164779,,,,,,,,,,,,
,,,,,,space,7.9866,NAN,,NAN,,0,133,133,133,1,134,Sam,Rej,Participant_Images/61338374ecef87bfdfd1c7bb/61338374ecef87bfdfd1c7bb_Images/61338374ecef87bfdfd1c7bb_Image_29.jpeg,did not like,5.336503566,,,,,,,,,,,,
,,,,,,,,,,,,,,,,,,,,,,,c,0,3.1999,space,1.0509,0,0,0,0,1,,
,,,,,,,,NAN,,NAN,,0,134,134,134,1,135,Sam,Rej,Participant_Images/61338374ecef87bfdfd1c7bb/61338374ecef87bfdfd1c7bb_Images/61338374ecef87bfdfd1c7bb_Image_15.jpeg,liked,2.642157193,,,,,,,,,,,,
,,,,,,space,2.3167,NAN,,NAN,,0,135,135,135,1,136,Sam,Rej,Participant_Images/61338374ecef87bfdfd1c7bb/61338374ecef87bfdfd1c7bb_Images/61338374ecef87bfdfd1c7bb_Image_27.jpeg,liked,4.456234322,,,,,,,,,,,,
,,,,,,space,0.5601,NAN,,NAN,,0,136,136,136,1,137,Sam,Rej,Participant_Images/61338374ecef87bfdfd1c7bb/61338374ecef87bfdfd1c7bb_Images/61338374ecef87bfdfd1c7bb_Image_12.jpeg,did not like,4.438512181,,,,,,,,,,,,
,,,,,,space,0.3681,NAN,,NAN,,0,137,137,137,1,138,Sam,Rej,Participant_Images/61338374ecef87bfdfd1c7bb/61338374ecef87bfdfd1c7bb_Images/61338374ecef87bfdfd1c7bb_Image_9.jpeg,liked,2.682944783,,,,,,,,,,,,
,,,,,,space,4.4759,NAN,,NAN,,0,138,138,138,1,139,Sam,Rej,Participant_Images/61338374ecef87bfdfd1c7bb/61338374ecef87bfdfd1c7bb_Images/61338374ecef87bfdfd1c7bb_Image_3.jpeg,did not like,4.51984296,,,,,,,,,,,,
,,,,,,,,,,,,,,,,,,,,,,,,999,,space,0.7213,0,0,0,0,1,,
,,,,,,,,NAN,,NAN,,0,139,139,139,1,140,Sam,Rej,Participant_Images/61338374ecef87bfdfd1c7bb/61338374ecef87bfdfd1c7bb_Images/61338374ecef87bfdfd1c7bb_Image_22.jpeg,did not like,3.195382774,,,,,,,,,,,,
,,,,,,space,0.7046,NAN,,NAN,,0,140,140,140,1,141,Sam,Rej,Participant_Images/61338374ecef87bfdfd1c7bb/61338374ecef87bfdfd1c7bb_Images/61338374ecef87bfdfd1c7bb_Image_21.jpeg,did not like,1.779333479,,,,,,,,,,,,
,,,,,,space,0.72,NAN,,NAN,,0,141,141,141,1,142,Sam,Rej,Participant_Images/61338374ecef87bfdfd1c7bb/61338374ecef87bfdfd1c7bb_Images/61338374ecef87bfdfd1c7bb_Image_13.jpeg,did not like,4.312468682,,,,,,,,,,,,
,,,,,,space,2.4825,NAN,,NAN,,0,142,142,142,1,143,Sam,Rej,Participant_Images/61338374ecef87bfdfd1c7bb/61338374ecef87bfdfd1c7bb_Images/61338374ecef87bfdfd1c7bb_Image_25.jpeg,liked,4.940433059,,,,,,,,,,,,
,,,,,,space,3.801,NAN,,NAN,,0,143,143,143,1,144,Sam,Rej,Participant_Images/61338374ecef87bfdfd1c7bb/61338374ecef87bfdfd1c7bb_Images/61338374ecef87bfdfd1c7bb_Image_2.jpeg,liked,2.7105123,,,,,,,,,,,,
,,,,,,,,,,,,,,,,,,,,,,,c,0,1.691,space,0.5104,0,0,0,0,1,,
,,,,,,,,NAN,,NAN,,0,144,144,144,1,145,Sam,Rej,Participant_Images/61338374ecef87bfdfd1c7bb/61338374ecef87bfdfd1c7bb_Images/61338374ecef87bfdfd1c7bb_Image_16.jpeg,did not like,3.602308302,,,,,,,,,,,,
,,,,,,space,4.5799,NAN,,NAN,,0,145,145,145,1,146,Sam,Rej,Participant_Images/61338374ecef87bfdfd1c7bb/61338374ecef87bfdfd1c7bb_Images/61338374ecef87bfdfd1c7bb_Image_23.jpeg,did not like,4.106391878,,,,,,,,,,,,
,,,,,,space,2.5877,NAN,,NAN,,0,146,146,146,1,147,Sam,Rej,Participant_Images/61338374ecef87bfdfd1c7bb/61338374ecef87bfdfd1c7bb_Images/61338374ecef87bfdfd1c7bb_Image_11.jpeg,liked,3.799433026,,,,,,,,,,,,
,,,,,,space,11.2063,NAN,,NAN,,0,147,147,147,1,148,Sam,Rej,Participant_Images/61338374ecef87bfdfd1c7bb/61338374ecef87bfdfd1c7bb_Images/61338374ecef87bfdfd1c7bb_Image_28.jpeg,liked,5.246980764,,,,,,,,,,,,
,,,,,,space,0.679,NAN,,NAN,,0,148,148,148,1,149,Sam,Rej,Participant_Images/61338374ecef87bfdfd1c7bb/61338374ecef87bfdfd1c7bb_Images/61338374ecef87bfdfd1c7bb_Image_4.jpeg,did not like,3.30081769,,,,,,,,,,,,
,,,,,,,,,,,,,,,,,,,,,,,c,0,1.7322,space,1.9379,0,0,0,0,1,,
,,,,,,,,2,,7,,0,149,149,149,1,150,Sam,Rej,Participant_Images/61338374ecef87bfdfd1c7bb/61338374ecef87bfdfd1c7bb_Images/61338374ecef87bfdfd1c7bb_Image_7.jpeg,did not like,1.661473164,,,,,,,,,,,,
,,,,,,,,,,,,,,,,,,,,,,,,,,,,,,,,,space,3.1261
