PROLIFIC_ID,endwelcomescreen_keys.keys,endwelcomescreen_keys.rt,endinstructionscreen_keys.keys,endinstructionscreen_keys.rt,endpartnermatch_keys.keys,endpartnermatch_keys.rt,sharenextphoto_key.keys,sharenextphoto_key.rt,salience_rating,key_resp.keys,stress_level,stresslevel_keypress.keys,entiretaskloop.thisRepN,entiretaskloop.thisTrialN,entiretaskloop.thisN,entiretaskloop.thisIndex,entiretaskloop.ran,TrialNumber,Partner,Condition,Photos,Feedback,FeedbackWait,choice_keys.keys,playlottery,choice_keys.rt,resumeafterlottery_keys.keys,resumeafterlottery_keys.rt,lotteryloop.thisRepN,lotteryloop.thisTrialN,lotteryloop.thisN,lotteryloop.thisIndex,lotteryloop.ran,end_screen_keys.keys,end_screen_keys.rt
61338374ecef87bfdfd1c7bb,space,6.1985,,,,,,,,,,,,,,,,,,,,,,,,,,,,,,,,,
61338374ecef87bfdfd1c7bb,,,,,,,,,,,,,,,,,,,,,,,,,,,,,,,,,,,
61338374ecef87bfdfd1c7bb,,,space,6.2372,,,,,,,,,,,,,,,,,,,,,,,,,,,,,,,
61338374ecef87bfdfd1c7bb,,,,,space,1.6765,space,0.8664,NAN,,NAN,,0.0,0.0,0.0,0.0,1.0,1.0,Alex,Neutral,Participant_Images/61338374ecef87bfdfd1c7bb/61338374ecef87bfdfd1c7bb_Images/61338374ecef87bfdfd1c7bb_Image_6.jpeg,liked,3.613205605,,,,,,,,,,,,
61338374ecef87bfdfd1c7bb,,,,,,,space,0.9256,NAN,,NAN,,0.0,1.0,1.0,1.0,1.0,2.0,Alex,Neutral,Participant_Images/61338374ecef87bfdfd1c7bb/61338374ecef87bfdfd1c7bb_Images/61338374ecef87bfdfd1c7bb_Image_26.jpeg,did not like,4.988446431,,,,,,,,,,,,
61338374ecef87bfdfd1c7bb,,,,,,,space,0.5179,NAN,,NAN,,0.0,2.0,2.0,2.0,1.0,3.0,Alex,Neutral,Participant_Images/61338374ecef87bfdfd1c7bb/61338374ecef87bfdfd1c7bb_Images/61338374ecef87bfdfd1c7bb_Image_14.jpeg,did not like,3.470791822,,,,,,,,,,,,
61338374ecef87bfdfd1c7bb,,,,,,,space,0.5256,NAN,,NAN,,0.0,3.0,3.0,3.0,1.0,4.0,Alex,Neutral,Participant_Images/61338374ecef87bfdfd1c7bb/61338374ecef87bfdfd1c7bb_Images/61338374ecef87bfdfd1c7bb_Image_23.jpeg,liked,3.820572462,,,,,,,,,,,,
61338374ecef87bfdfd1c7bb,,,,,,,,,,,,,,,,,,,,,,,,c,0.0,3.2491,space,0.8557,0.0,0.0,0.0,0.0,1.0,,
61338374ecef87bfdfd1c7bb,,,,,,,,,NAN,,NAN,,0.0,4.0,4.0,4.0,1.0,5.0,Alex,Neutral,Participant_Images/61338374ecef87bfdfd1c7bb/61338374ecef87bfdfd1c7bb_Images/61338374ecef87bfdfd1c7bb_Image_21.jpeg,liked,2.455989137,,,,,,,,,,,,
61338374ecef87bfdfd1c7bb,,,,,,,space,0.9289,NAN,,NAN,,0.0,5.0,5.0,5.0,1.0,6.0,Alex,Neutral,Participant_Images/61338374ecef87bfdfd1c7bb/61338374ecef87bfdfd1c7bb_Images/61338374ecef87bfdfd1c7bb_Image_24.jpeg,liked,3.79605092,,,,,,,,,,,,
61338374ecef87bfdfd1c7bb,,,,,,,space,0.8004,NAN,,NAN,,0.0,6.0,6.0,6.0,1.0,7.0,Alex,Neutral,Participant_Images/61338374ecef87bfdfd1c7bb/61338374ecef87bfdfd1c7bb_Images/61338374ecef87bfdfd1c7bb_Image_1.jpeg,liked,3.562416326,,,,,,,,,,,,
61338374ecef87bfdfd1c7bb,,,,,,,space,1.2313,NAN,,NAN,,0.0,7.0,7.0,7.0,1.0,8.0,Alex,Neutral,Participant_Images/61338374ecef87bfdfd1c7bb/61338374ecef87bfdfd1c7bb_Images/61338374ecef87bfdfd1c7bb_Image_2.jpeg,did not like,2.843822497,,,,,,,,,,,,
61338374ecef87bfdfd1c7bb,,,,,,,space,0.4605,NAN,,NAN,,0.0,8.0,8.0,8.0,1.0,9.0,Alex,Neutral,Participant_Images/61338374ecef87bfdfd1c7bb/61338374ecef87bfdfd1c7bb_Images/61338374ecef87bfdfd1c7bb_Image_7.jpeg,liked,3.546495948,,,,,,,,,,,,
61338374ecef87bfdfd1c7bb,,,,,,,,,,,,,,,,,,,,,,,,c,0.0,1.6135,space,1.1156,0.0,0.0,0.0,0.0,1.0,,
61338374ecef87bfdfd1c7bb,,,,,,,,,NAN,,NAN,,0.0,9.0,9.0,9.0,1.0,10.0,Alex,Neutral,Participant_Images/61338374ecef87bfdfd1c7bb/61338374ecef87bfdfd1c7bb_Images/61338374ecef87bfdfd1c7bb_Image_28.jpeg,liked,1.672012706,,,,,,,,,,,,
61338374ecef87bfdfd1c7bb,,,,,,,space,0.7018,NAN,,NAN,,0.0,10.0,10.0,10.0,1.0,11.0,Alex,Neutral,Participant_Images/61338374ecef87bfdfd1c7bb/61338374ecef87bfdfd1c7bb_Images/61338374ecef87bfdfd1c7bb_Image_12.jpeg,did not like,4.942172136,,,,,,,,,,,,
61338374ecef87bfdfd1c7bb,,,,,,,space,0.757,NAN,,NAN,,0.0,11.0,11.0,11.0,1.0,12.0,Alex,Neutral,Participant_Images/61338374ecef87bfdfd1c7bb/61338374ecef87bfdfd1c7bb_Images/61338374ecef87bfdfd1c7bb_Image_4.jpeg,did not like,2.50187214,,,,,,,,,,,,
61338374ecef87bfdfd1c7bb,,,,,,,space,0.6826,NAN,,NAN,,0.0,12.0,12.0,12.0,1.0,13.0,Alex,Neutral,Participant_Images/61338374ecef87bfdfd1c7bb/61338374ecef87bfdfd1c7bb_Images/61338374ecef87bfdfd1c7bb_Image_20.jpeg,liked,2.071164779,,,,,,,,,,,,
61338374ecef87bfdfd1c7bb,,,,,,,space,0.9135,NAN,,NAN,,0.0,13.0,13.0,13.0,1.0,14.0,Alex,Neutral,Participant_Images/61338374ecef87bfdfd1c7bb/61338374ecef87bfdfd1c7bb_Images/61338374ecef87bfdfd1c7bb_Image_13.jpeg,did not like,5.336503566,,,,,,,,,,,,
61338374ecef87bfdfd1c7bb,,,,,,,,,,,,,,,,,,,,,,,,c,0.0,1.5075,space,4.9173,0.0,0.0,0.0,0.0,1.0,,
61338374ecef87bfdfd1c7bb,,,,,,,,,NAN,,NAN,,0.0,14.0,14.0,14.0,1.0,15.0,Alex,Neutral,Participant_Images/61338374ecef87bfdfd1c7bb/61338374ecef87bfdfd1c7bb_Images/61338374ecef87bfdfd1c7bb_Image_19.jpeg,did not like,2.642157193,,,,,,,,,,,,
61338374ecef87bfdfd1c7bb,,,,,,,space,1.5642,NAN,,NAN,,0.0,15.0,15.0,15.0,1.0,16.0,Alex,Neutral,Participant_Images/61338374ecef87bfdfd1c7bb/61338374ecef87bfdfd1c7bb_Images/61338374ecef87bfdfd1c7bb_Image_18.jpeg,did not like,4.456234322,,,,,,,,,,,,
61338374ecef87bfdfd1c7bb,,,,,,,space,0.7043,NAN,,NAN,,0.0,16.0,16.0,16.0,1.0,17.0,Alex,Neutral,Participant_Images/61338374ecef87bfdfd1c7bb/61338374ecef87bfdfd1c7bb_Images/61338374ecef87bfdfd1c7bb_Image_22.jpeg,did not like,4.438512181,,,,,,,,,,,,
61338374ecef87bfdfd1c7bb,,,,,,,space,0.5462,NAN,,NAN,,0.0,17.0,17.0,17.0,1.0,18.0,Alex,Neutral,Participant_Images/61338374ecef87bfdfd1c7bb/61338374ecef87bfdfd1c7bb_Images/61338374ecef87bfdfd1c7bb_Image_15.jpeg,did not like,2.682944783,,,,,,,,,,,,
61338374ecef87bfdfd1c7bb,,,,,,,space,0.395,NAN,,NAN,,0.0,18.0,18.0,18.0,1.0,19.0,Alex,Neutral,Participant_Images/61338374ecef87bfdfd1c7bb/61338374ecef87bfdfd1c7bb_Images/61338374ecef87bfdfd1c7bb_Image_10.jpeg,liked,4.51984296,,,,,,,,,,,,
61338374ecef87bfdfd1c7bb,,,,,,,,,,,,,,,,,,,,,,,,c,0.0,1.4194,space,0.5376,0.0,0.0,0.0,0.0,1.0,,
61338374ecef87bfdfd1c7bb,,,,,,,,,NAN,,NAN,,0.0,19.0,19.0,19.0,1.0,20.0,Alex,Neutral,Participant_Images/61338374ecef87bfdfd1c7bb/61338374ecef87bfdfd1c7bb_Images/61338374ecef87bfdfd1c7bb_Image_16.jpeg,did not like,3.195382774,,,,,,,,,,,,
61338374ecef87bfdfd1c7bb,,,,,,,space,0.5927,NAN,,NAN,,0.0,20.0,20.0,20.0,1.0,21.0,Alex,Neutral,Participant_Images/61338374ecef87bfdfd1c7bb/61338374ecef87bfdfd1c7bb_Images/61338374ecef87bfdfd1c7bb_Image_11.jpeg,liked,1.779333479,,,,,,,,,,,,
61338374ecef87bfdfd1c7bb,,,,,,,space,0.7384,NAN,,NAN,,0.0,21.0,21.0,21.0,1.0,22.0,Alex,Neutral,Participant_Images/61338374ecef87bfdfd1c7bb/61338374ecef87bfdfd1c7bb_Images/61338374ecef87bfdfd1c7bb_Image_9.jpeg,did not like,4.312468682,,,,,,,,,,,,
61338374ecef87bfdfd1c7bb,,,,,,,space,0.3701,NAN,,NAN,,0.0,22.0,22.0,22.0,1.0,23.0,Alex,Neutral,Participant_Images/61338374ecef87bfdfd1c7bb/61338374ecef87bfdfd1c7bb_Images/61338374ecef87bfdfd1c7bb_Image_30.jpeg,liked,4.940433059,,,,,,,,,,,,
61338374ecef87bfdfd1c7bb,,,,,,,space,0.6999,NAN,,NAN,,0.0,23.0,23.0,23.0,1.0,24.0,Alex,Neutral,Participant_Images/61338374ecef87bfdfd1c7bb/61338374ecef87bfdfd1c7bb_Images/61338374ecef87bfdfd1c7bb_Image_29.jpeg,liked,2.7105123,,,,,,,,,,,,
61338374ecef87bfdfd1c7bb,,,,,,,,,,,,,,,,,,,,,,,,c,0.0,1.1412,space,1.0844,0.0,0.0,0.0,0.0,1.0,,
61338374ecef87bfdfd1c7bb,,,,,,,,,NAN,,NAN,,0.0,24.0,24.0,24.0,1.0,25.0,Alex,Neutral,Participant_Images/61338374ecef87bfdfd1c7bb/61338374ecef87bfdfd1c7bb_Images/61338374ecef87bfdfd1c7bb_Image_17.jpeg,did not like,3.602308302,,,,,,,,,,,,
61338374ecef87bfdfd1c7bb,,,,,,,space,0.7708,NAN,,NAN,,0.0,25.0,25.0,25.0,1.0,26.0,Alex,Neutral,Participant_Images/61338374ecef87bfdfd1c7bb/61338374ecef87bfdfd1c7bb_Images/61338374ecef87bfdfd1c7bb_Image_3.jpeg,liked,4.106391878,,,,,,,,,,,,
61338374ecef87bfdfd1c7bb,,,,,,,space,0.7211,NAN,,NAN,,0.0,26.0,26.0,26.0,1.0,27.0,Alex,Neutral,Participant_Images/61338374ecef87bfdfd1c7bb/61338374ecef87bfdfd1c7bb_Images/61338374ecef87bfdfd1c7bb_Image_27.jpeg,liked,3.799433026,,,,,,,,,,,,
61338374ecef87bfdfd1c7bb,,,,,,,space,0.5251,NAN,,NAN,,0.0,27.0,27.0,27.0,1.0,28.0,Alex,Neutral,Participant_Images/61338374ecef87bfdfd1c7bb/61338374ecef87bfdfd1c7bb_Images/61338374ecef87bfdfd1c7bb_Image_8.jpeg,did not like,5.246980764,,,,,,,,,,,,
61338374ecef87bfdfd1c7bb,,,,,,,space,0.7214,NAN,,NAN,,0.0,28.0,28.0,28.0,1.0,29.0,Alex,Neutral,Participant_Images/61338374ecef87bfdfd1c7bb/61338374ecef87bfdfd1c7bb_Images/61338374ecef87bfdfd1c7bb_Image_5.jpeg,did not like,3.30081769,,,,,,,,,,,,
61338374ecef87bfdfd1c7bb,,,,,,,,,,,,,,,,,,,,,,,,c,0.0,1.6916,space,0.0854,0.0,0.0,0.0,0.0,1.0,,
61338374ecef87bfdfd1c7bb,,,,,,,,,3,,6,,0.0,29.0,29.0,29.0,1.0,30.0,Alex,Neutral,Participant_Images/61338374ecef87bfdfd1c7bb/61338374ecef87bfdfd1c7bb_Images/61338374ecef87bfdfd1c7bb_Image_25.jpeg,liked,1.661473164,,,,,,,,,,,,
61338374ecef87bfdfd1c7bb,,,,,space,1.2903,space,0.5529,NAN,,NAN,,0.0,30.0,30.0,30.0,1.0,31.0,Riley,Rej,Participant_Images/61338374ecef87bfdfd1c7bb/61338374ecef87bfdfd1c7bb_Images/61338374ecef87bfdfd1c7bb_Image_10.jpeg,liked,3.613205605,,,,,,,,,,,,
61338374ecef87bfdfd1c7bb,,,,,,,space,0.3563,NAN,,NAN,,0.0,31.0,31.0,31.0,1.0,32.0,Riley,Rej,Participant_Images/61338374ecef87bfdfd1c7bb/61338374ecef87bfdfd1c7bb_Images/61338374ecef87bfdfd1c7bb_Image_19.jpeg,liked,4.988446431,,,,,,,,,,,,
61338374ecef87bfdfd1c7bb,,,,,,,space,0.5323,NAN,,NAN,,0.0,32.0,32.0,32.0,1.0,33.0,Riley,Rej,Participant_Images/61338374ecef87bfdfd1c7bb/61338374ecef87bfdfd1c7bb_Images/61338374ecef87bfdfd1c7bb_Image_11.jpeg,liked,3.470791822,,,,,,,,,,,,
61338374ecef87bfdfd1c7bb,,,,,,,space,1.0582,NAN,,NAN,,0.0,33.0,33.0,33.0,1.0,34.0,Riley,Rej,Participant_Images/61338374ecef87bfdfd1c7bb/61338374ecef87bfdfd1c7bb_Images/61338374ecef87bfdfd1c7bb_Image_23.jpeg,did not like,3.820572462,,,,,,,,,,,,
61338374ecef87bfdfd1c7bb,,,,,,,,,,,,,,,,,,,,,,,,c,0.0,2.417,space,2.4651,0.0,0.0,0.0,0.0,1.0,,
61338374ecef87bfdfd1c7bb,,,,,,,,,NAN,,NAN,,0.0,34.0,34.0,34.0,1.0,35.0,Riley,Rej,Participant_Images/61338374ecef87bfdfd1c7bb/61338374ecef87bfdfd1c7bb_Images/61338374ecef87bfdfd1c7bb_Image_16.jpeg,liked,2.455989137,,,,,,,,,,,,
61338374ecef87bfdfd1c7bb,,,,,,,space,0.9301,NAN,,NAN,,0.0,35.0,35.0,35.0,1.0,36.0,Riley,Rej,Participant_Images/61338374ecef87bfdfd1c7bb/61338374ecef87bfdfd1c7bb_Images/61338374ecef87bfdfd1c7bb_Image_22.jpeg,did not like,3.79605092,,,,,,,,,,,,
61338374ecef87bfdfd1c7bb,,,,,,,space,2.5393,NAN,,NAN,,0.0,36.0,36.0,36.0,1.0,37.0,Riley,Rej,Participant_Images/61338374ecef87bfdfd1c7bb/61338374ecef87bfdfd1c7bb_Images/61338374ecef87bfdfd1c7bb_Image_24.jpeg,did not like,3.562416326,,,,,,,,,,,,
61338374ecef87bfdfd1c7bb,,,,,,,space,5.5132,NAN,,NAN,,0.0,37.0,37.0,37.0,1.0,38.0,Riley,Rej,Participant_Images/61338374ecef87bfdfd1c7bb/61338374ecef87bfdfd1c7bb_Images/61338374ecef87bfdfd1c7bb_Image_13.jpeg,did not like,2.843822497,,,,,,,,,,,,
61338374ecef87bfdfd1c7bb,,,,,,,space,1.5541,NAN,,NAN,,0.0,38.0,38.0,38.0,1.0,39.0,Riley,Rej,Participant_Images/61338374ecef87bfdfd1c7bb/61338374ecef87bfdfd1c7bb_Images/61338374ecef87bfdfd1c7bb_Image_26.jpeg,liked,3.546495948,,,,,,,,,,,,
61338374ecef87bfdfd1c7bb,,,,,,,,,,,,,,,,,,,,,,,,c,0.0,2.9697,space,2.1776,0.0,0.0,0.0,0.0,1.0,,
61338374ecef87bfdfd1c7bb,,,,,,,,,NAN,,NAN,,0.0,39.0,39.0,39.0,1.0,40.0,Riley,Rej,Participant_Images/61338374ecef87bfdfd1c7bb/61338374ecef87bfdfd1c7bb_Images/61338374ecef87bfdfd1c7bb_Image_1.jpeg,liked,1.672012706,,,,,,,,,,,,
61338374ecef87bfdfd1c7bb,,,,,,,space,0.8665,NAN,,NAN,,0.0,40.0,40.0,40.0,1.0,41.0,Riley,Rej,Participant_Images/61338374ecef87bfdfd1c7bb/61338374ecef87bfdfd1c7bb_Images/61338374ecef87bfdfd1c7bb_Image_18.jpeg,did not like,4.942172136,,,,,,,,,,,,
61338374ecef87bfdfd1c7bb,,,,,,,space,1.6395,NAN,,NAN,,0.0,41.0,41.0,41.0,1.0,42.0,Riley,Rej,Participant_Images/61338374ecef87bfdfd1c7bb/61338374ecef87bfdfd1c7bb_Images/61338374ecef87bfdfd1c7bb_Image_15.jpeg,did not like,2.50187214,,,,,,,,,,,,
61338374ecef87bfdfd1c7bb,,,,,,,space,0.7002,NAN,,NAN,,0.0,42.0,42.0,42.0,1.0,43.0,Riley,Rej,Participant_Images/61338374ecef87bfdfd1c7bb/61338374ecef87bfdfd1c7bb_Images/61338374ecef87bfdfd1c7bb_Image_3.jpeg,did not like,2.071164779,,,,,,,,,,,,
61338374ecef87bfdfd1c7bb,,,,,,,space,1.4715,NAN,,NAN,,0.0,43.0,43.0,43.0,1.0,44.0,Riley,Rej,Participant_Images/61338374ecef87bfdfd1c7bb/61338374ecef87bfdfd1c7bb_Images/61338374ecef87bfdfd1c7bb_Image_9.jpeg,did not like,5.336503566,,,,,,,,,,,,
61338374ecef87bfdfd1c7bb,,,,,,,,,,,,,,,,,,,,,,,,c,0.0,2.273,space,1.9232,0.0,0.0,0.0,0.0,1.0,,
61338374ecef87bfdfd1c7bb,,,,,,,,,NAN,,NAN,,0.0,44.0,44.0,44.0,1.0,45.0,Riley,Rej,Participant_Images/61338374ecef87bfdfd1c7bb/61338374ecef87bfdfd1c7bb_Images/61338374ecef87bfdfd1c7bb_Image_2.jpeg,did not like,2.642157193,,,,,,,,,,,,
61338374ecef87bfdfd1c7bb,,,,,,,space,1.0699,NAN,,NAN,,0.0,45.0,45.0,45.0,1.0,46.0,Riley,Rej,Participant_Images/61338374ecef87bfdfd1c7bb/61338374ecef87bfdfd1c7bb_Images/61338374ecef87bfdfd1c7bb_Image_28.jpeg,did not like,4.456234322,,,,,,,,,,,,
61338374ecef87bfdfd1c7bb,,,,,,,space,1.4265,NAN,,NAN,,0.0,46.0,46.0,46.0,1.0,47.0,Riley,Rej,Participant_Images/61338374ecef87bfdfd1c7bb/61338374ecef87bfdfd1c7bb_Images/61338374ecef87bfdfd1c7bb_Image_5.jpeg,did not like,4.438512181,,,,,,,,,,,,
61338374ecef87bfdfd1c7bb,,,,,,,space,2.5868,NAN,,NAN,,0.0,47.0,47.0,47.0,1.0,48.0,Riley,Rej,Participant_Images/61338374ecef87bfdfd1c7bb/61338374ecef87bfdfd1c7bb_Images/61338374ecef87bfdfd1c7bb_Image_6.jpeg,did not like,2.682944783,,,,,,,,,,,,
61338374ecef87bfdfd1c7bb,,,,,,,space,3.574,NAN,,NAN,,0.0,48.0,48.0,48.0,1.0,49.0,Riley,Rej,Participant_Images/61338374ecef87bfdfd1c7bb/61338374ecef87bfdfd1c7bb_Images/61338374ecef87bfdfd1c7bb_Image_14.jpeg,did not like,4.51984296,,,,,,,,,,,,
61338374ecef87bfdfd1c7bb,,,,,,,,,,,,,,,,,,,,,,,,c,0.0,1.9861,space,4.4178,0.0,0.0,0.0,0.0,1.0,,
61338374ecef87bfdfd1c7bb,,,,,,,,,NAN,,NAN,,0.0,49.0,49.0,49.0,1.0,50.0,Riley,Rej,Participant_Images/61338374ecef87bfdfd1c7bb/61338374ecef87bfdfd1c7bb_Images/61338374ecef87bfdfd1c7bb_Image_4.jpeg,did not like,3.195382774,,,,,,,,,,,,
61338374ecef87bfdfd1c7bb,,,,,,,space,1.9655,NAN,,NAN,,0.0,50.0,50.0,50.0,1.0,51.0,Riley,Rej,Participant_Images/61338374ecef87bfdfd1c7bb/61338374ecef87bfdfd1c7bb_Images/61338374ecef87bfdfd1c7bb_Image_25.jpeg,liked,1.779333479,,,,,,,,,,,,
61338374ecef87bfdfd1c7bb,,,,,,,space,1.8062,NAN,,NAN,,0.0,51.0,51.0,51.0,1.0,52.0,Riley,Rej,Participant_Images/61338374ecef87bfdfd1c7bb/61338374ecef87bfdfd1c7bb_Images/61338374ecef87bfdfd1c7bb_Image_29.jpeg,did not like,4.312468682,,,,,,,,,,,,
61338374ecef87bfdfd1c7bb,,,,,,,space,0.5398,NAN,,NAN,,0.0,52.0,52.0,52.0,1.0,53.0,Riley,Rej,Participant_Images/61338374ecef87bfdfd1c7bb/61338374ecef87bfdfd1c7bb_Images/61338374ecef87bfdfd1c7bb_Image_30.jpeg,did not like,4.940433059,,,,,,,,,,,,
61338374ecef87bfdfd1c7bb,,,,,,,space,0.4457,NAN,,NAN,,0.0,53.0,53.0,53.0,1.0,54.0,Riley,Rej,Participant_Images/61338374ecef87bfdfd1c7bb/61338374ecef87bfdfd1c7bb_Images/61338374ecef87bfdfd1c7bb_Image_12.jpeg,did not like,2.7105123,,,,,,,,,,,,
61338374ecef87bfdfd1c7bb,,,,,,,,,,,,,,,,,,,,,,,,c,0.0,1.5979,space,3.2585,0.0,0.0,0.0,0.0,1.0,,
61338374ecef87bfdfd1c7bb,,,,,,,,,NAN,,NAN,,0.0,54.0,54.0,54.0,1.0,55.0,Riley,Rej,Participant_Images/61338374ecef87bfdfd1c7bb/61338374ecef87bfdfd1c7bb_Images/61338374ecef87bfdfd1c7bb_Image_21.jpeg,did not like,3.602308302,,,,,,,,,,,,
61338374ecef87bfdfd1c7bb,,,,,,,space,1.0918,NAN,,NAN,,0.0,55.0,55.0,55.0,1.0,56.0,Riley,Rej,Participant_Images/61338374ecef87bfdfd1c7bb/61338374ecef87bfdfd1c7bb_Images/61338374ecef87bfdfd1c7bb_Image_17.jpeg,liked,4.106391878,,,,,,,,,,,,
61338374ecef87bfdfd1c7bb,,,,,,,space,0.9057,NAN,,NAN,,0.0,56.0,56.0,56.0,1.0,57.0,Riley,Rej,Participant_Images/61338374ecef87bfdfd1c7bb/61338374ecef87bfdfd1c7bb_Images/61338374ecef87bfdfd1c7bb_Image_7.jpeg,did not like,3.799433026,,,,,,,,,,,,
61338374ecef87bfdfd1c7bb,,,,,,,space,2.1998,NAN,,NAN,,0.0,57.0,57.0,57.0,1.0,58.0,Riley,Rej,Participant_Images/61338374ecef87bfdfd1c7bb/61338374ecef87bfdfd1c7bb_Images/61338374ecef87bfdfd1c7bb_Image_8.jpeg,liked,5.246980764,,,,,,,,,,,,
61338374ecef87bfdfd1c7bb,,,,,,,space,1.7912,NAN,,NAN,,0.0,58.0,58.0,58.0,1.0,59.0,Riley,Rej,Participant_Images/61338374ecef87bfdfd1c7bb/61338374ecef87bfdfd1c7bb_Images/61338374ecef87bfdfd1c7bb_Image_20.jpeg,did not like,3.30081769,,,,,,,,,,,,
61338374ecef87bfdfd1c7bb,,,,,,,,,,,,,,,,,,,,,,,,c,0.0,1.7212,space,0.871,0.0,0.0,0.0,0.0,1.0,,
61338374ecef87bfdfd1c7bb,,,,,,,,,3,,6,,0.0,59.0,59.0,59.0,1.0,60.0,Riley,Rej,Participant_Images/61338374ecef87bfdfd1c7bb/61338374ecef87bfdfd1c7bb_Images/61338374ecef87bfdfd1c7bb_Image_27.jpeg,did not like,1.661473164,,,,,,,,,,,,
61338374ecef87bfdfd1c7bb,,,,,space,5.5677,space,1.807,NAN,,NAN,,0.0,60.0,60.0,60.0,1.0,61.0,Charlie,Acc,Participant_Images/61338374ecef87bfdfd1c7bb/61338374ecef87bfdfd1c7bb_Images/61338374ecef87bfdfd1c7bb_Image_4.jpeg,liked,3.613205605,,,,,,,,,,,,
61338374ecef87bfdfd1c7bb,,,,,,,space,4.6635,NAN,,NAN,,0.0,61.0,61.0,61.0,1.0,62.0,Charlie,Acc,Participant_Images/61338374ecef87bfdfd1c7bb/61338374ecef87bfdfd1c7bb_Images/61338374ecef87bfdfd1c7bb_Image_9.jpeg,liked,4.988446431,,,,,,,,,,,,
61338374ecef87bfdfd1c7bb,,,,,,,space,0.6661,NAN,,NAN,,0.0,62.0,62.0,62.0,1.0,63.0,Charlie,Acc,Participant_Images/61338374ecef87bfdfd1c7bb/61338374ecef87bfdfd1c7bb_Images/61338374ecef87bfdfd1c7bb_Image_29.jpeg,liked,3.470791822,,,,,,,,,,,,
61338374ecef87bfdfd1c7bb,,,,,,,space,1.4328,NAN,,NAN,,0.0,63.0,63.0,63.0,1.0,64.0,Charlie,Acc,Participant_Images/61338374ecef87bfdfd1c7bb/61338374ecef87bfdfd1c7bb_Images/61338374ecef87bfdfd1c7bb_Image_15.jpeg,liked,3.820572462,,,,,,,,,,,,
61338374ecef87bfdfd1c7bb,,,,,,,,,,,,,,,,,,,,,,,,c,0.0,3.3692,space,1.9471,0.0,0.0,0.0,0.0,1.0,,
61338374ecef87bfdfd1c7bb,,,,,,,,,NAN,,NAN,,0.0,64.0,64.0,64.0,1.0,65.0,Charlie,Acc,Participant_Images/61338374ecef87bfdfd1c7bb/61338374ecef87bfdfd1c7bb_Images/61338374ecef87bfdfd1c7bb_Image_1.jpeg,liked,2.455989137,,,,,,,,,,,,
61338374ecef87bfdfd1c7bb,,,,,,,space,1.9701,NAN,,NAN,,0.0,65.0,65.0,65.0,1.0,66.0,Charlie,Acc,Participant_Images/61338374ecef87bfdfd1c7bb/61338374ecef87bfdfd1c7bb_Images/61338374ecef87bfdfd1c7bb_Image_30.jpeg,liked,3.79605092,,,,,,,,,,,,
61338374ecef87bfdfd1c7bb,,,,,,,space,0.7837,NAN,,NAN,,0.0,66.0,66.0,66.0,1.0,67.0,Charlie,Acc,Participant_Images/61338374ecef87bfdfd1c7bb/61338374ecef87bfdfd1c7bb_Images/61338374ecef87bfdfd1c7bb_Image_8.jpeg,liked,3.562416326,,,,,,,,,,,,
61338374ecef87bfdfd1c7bb,,,,,,,space,1.427,NAN,,NAN,,0.0,67.0,67.0,67.0,1.0,68.0,Charlie,Acc,Participant_Images/61338374ecef87bfdfd1c7bb/61338374ecef87bfdfd1c7bb_Images/61338374ecef87bfdfd1c7bb_Image_13.jpeg,liked,2.843822497,,,,,,,,,,,,
61338374ecef87bfdfd1c7bb,,,,,,,space,1.9931,NAN,,NAN,,0.0,68.0,68.0,68.0,1.0,69.0,Charlie,Acc,Participant_Images/61338374ecef87bfdfd1c7bb/61338374ecef87bfdfd1c7bb_Images/61338374ecef87bfdfd1c7bb_Image_16.jpeg,did not like,3.546495948,,,,,,,,,,,,
61338374ecef87bfdfd1c7bb,,,,,,,,,,,,,,,,,,,,,,,,c,0.0,1.29,space,1.4395,0.0,0.0,0.0,0.0,1.0,,
61338374ecef87bfdfd1c7bb,,,,,,,,,NAN,,NAN,,0.0,69.0,69.0,69.0,1.0,70.0,Charlie,Acc,Participant_Images/61338374ecef87bfdfd1c7bb/61338374ecef87bfdfd1c7bb_Images/61338374ecef87bfdfd1c7bb_Image_5.jpeg,liked,1.672012706,,,,,,,,,,,,
61338374ecef87bfdfd1c7bb,,,,,,,space,1.4546,NAN,,NAN,,0.0,70.0,70.0,70.0,1.0,71.0,Charlie,Acc,Participant_Images/61338374ecef87bfdfd1c7bb/61338374ecef87bfdfd1c7bb_Images/61338374ecef87bfdfd1c7bb_Image_28.jpeg,did not like,4.942172136,,,,,,,,,,,,
61338374ecef87bfdfd1c7bb,,,,,,,space,1.1152,NAN,,NAN,,0.0,71.0,71.0,71.0,1.0,72.0,Charlie,Acc,Participant_Images/61338374ecef87bfdfd1c7bb/61338374ecef87bfdfd1c7bb_Images/61338374ecef87bfdfd1c7bb_Image_25.jpeg,liked,2.50187214,,,,,,,,,,,,
61338374ecef87bfdfd1c7bb,,,,,,,space,0.7263,NAN,,NAN,,0.0,72.0,72.0,72.0,1.0,73.0,Charlie,Acc,Participant_Images/61338374ecef87bfdfd1c7bb/61338374ecef87bfdfd1c7bb_Images/61338374ecef87bfdfd1c7bb_Image_7.jpeg,liked,2.071164779,,,,,,,,,,,,
61338374ecef87bfdfd1c7bb,,,,,,,space,0.3997,NAN,,NAN,,0.0,73.0,73.0,73.0,1.0,74.0,Charlie,Acc,Participant_Images/61338374ecef87bfdfd1c7bb/61338374ecef87bfdfd1c7bb_Images/61338374ecef87bfdfd1c7bb_Image_22.jpeg,liked,5.336503566,,,,,,,,,,,,
61338374ecef87bfdfd1c7bb,,,,,,,,,,,,,,,,,,,,,,,,c,0.0,2.2223,space,1.1112,0.0,0.0,0.0,0.0,1.0,,
61338374ecef87bfdfd1c7bb,,,,,,,,,NAN,,NAN,,0.0,74.0,74.0,74.0,1.0,75.0,Charlie,Acc,Participant_Images/61338374ecef87bfdfd1c7bb/61338374ecef87bfdfd1c7bb_Images/61338374ecef87bfdfd1c7bb_Image_2.jpeg,did not like,2.642157193,,,,,,,,,,,,
61338374ecef87bfdfd1c7bb,,,,,,,space,0.7676,NAN,,NAN,,0.0,75.0,75.0,75.0,1.0,76.0,Charlie,Acc,Participant_Images/61338374ecef87bfdfd1c7bb/61338374ecef87bfdfd1c7bb_Images/61338374ecef87bfdfd1c7bb_Image_20.jpeg,liked,4.456234322,,,,,,,,,,,,
61338374ecef87bfdfd1c7bb,,,,,,,space,1.0885,NAN,,NAN,,0.0,76.0,76.0,76.0,1.0,77.0,Charlie,Acc,Participant_Images/61338374ecef87bfdfd1c7bb/61338374ecef87bfdfd1c7bb_Images/61338374ecef87bfdfd1c7bb_Image_12.jpeg,liked,4.438512181,,,,,,,,,,,,
61338374ecef87bfdfd1c7bb,,,,,,,space,3.6792,NAN,,NAN,,0.0,77.0,77.0,77.0,1.0,78.0,Charlie,Acc,Participant_Images/61338374ecef87bfdfd1c7bb/61338374ecef87bfdfd1c7bb_Images/61338374ecef87bfdfd1c7bb_Image_3.jpeg,did not like,2.682944783,,,,,,,,,,,,
61338374ecef87bfdfd1c7bb,,,,,,,space,0.727,NAN,,NAN,,0.0,78.0,78.0,78.0,1.0,79.0,Charlie,Acc,Participant_Images/61338374ecef87bfdfd1c7bb/61338374ecef87bfdfd1c7bb_Images/61338374ecef87bfdfd1c7bb_Image_27.jpeg,did not like,4.51984296,,,,,,,,,,,,
61338374ecef87bfdfd1c7bb,,,,,,,,,,,,,,,,,,,,,,,,c,0.0,3.1673,space,1.4013,0.0,0.0,0.0,0.0,1.0,,
61338374ecef87bfdfd1c7bb,,,,,,,,,NAN,,NAN,,0.0,79.0,79.0,79.0,1.0,80.0,Charlie,Acc,Participant_Images/61338374ecef87bfdfd1c7bb/61338374ecef87bfdfd1c7bb_Images/61338374ecef87bfdfd1c7bb_Image_14.jpeg,liked,3.195382774,,,,,,,,,,,,
61338374ecef87bfdfd1c7bb,,,,,,,space,1.8368,NAN,,NAN,,0.0,80.0,80.0,80.0,1.0,81.0,Charlie,Acc,Participant_Images/61338374ecef87bfdfd1c7bb/61338374ecef87bfdfd1c7bb_Images/61338374ecef87bfdfd1c7bb_Image_26.jpeg,liked,1.779333479,,,,,,,,,,,,
61338374ecef87bfdfd1c7bb,,,,,,,space,1.4147,NAN,,NAN,,0.0,81.0,81.0,81.0,1.0,82.0,Charlie,Acc,Participant_Images/61338374ecef87bfdfd1c7bb/61338374ecef87bfdfd1c7bb_Images/61338374ecef87bfdfd1c7bb_Image_17.jpeg,did not like,4.312468682,,,,,,,,,,,,
61338374ecef87bfdfd1c7bb,,,,,,,space,1.0686,NAN,,NAN,,0.0,82.0,82.0,82.0,1.0,83.0,Charlie,Acc,Participant_Images/61338374ecef87bfdfd1c7bb/61338374ecef87bfdfd1c7bb_Images/61338374ecef87bfdfd1c7bb_Image_24.jpeg,liked,4.940433059,,,,,,,,,,,,
61338374ecef87bfdfd1c7bb,,,,,,,space,1.6743,NAN,,NAN,,0.0,83.0,83.0,83.0,1.0,84.0,Charlie,Acc,Participant_Images/61338374ecef87bfdfd1c7bb/61338374ecef87bfdfd1c7bb_Images/61338374ecef87bfdfd1c7bb_Image_23.jpeg,did not like,2.7105123,,,,,,,,,,,,
61338374ecef87bfdfd1c7bb,,,,,,,,,,,,,,,,,,,,,,,,c,0.0,2.0478,space,0.9059,0.0,0.0,0.0,0.0,1.0,,
61338374ecef87bfdfd1c7bb,,,,,,,,,NAN,,NAN,,0.0,84.0,84.0,84.0,1.0,85.0,Charlie,Acc,Participant_Images/61338374ecef87bfdfd1c7bb/61338374ecef87bfdfd1c7bb_Images/61338374ecef87bfdfd1c7bb_Image_18.jpeg,did not like,3.602308302,,,,,,,,,,,,
61338374ecef87bfdfd1c7bb,,,,,,,space,2.1583,NAN,,NAN,,0.0,85.0,85.0,85.0,1.0,86.0,Charlie,Acc,Participant_Images/61338374ecef87bfdfd1c7bb/61338374ecef87bfdfd1c7bb_Images/61338374ecef87bfdfd1c7bb_Image_10.jpeg,liked,4.106391878,,,,,,,,,,,,
61338374ecef87bfdfd1c7bb,,,,,,,space,1.1269,NAN,,NAN,,0.0,86.0,86.0,86.0,1.0,87.0,Charlie,Acc,Participant_Images/61338374ecef87bfdfd1c7bb/61338374ecef87bfdfd1c7bb_Images/61338374ecef87bfdfd1c7bb_Image_19.jpeg,liked,3.799433026,,,,,,,,,,,,
61338374ecef87bfdfd1c7bb,,,,,,,space,0.2422,NAN,,NAN,,0.0,87.0,87.0,87.0,1.0,88.0,Charlie,Acc,Participant_Images/61338374ecef87bfdfd1c7bb/61338374ecef87bfdfd1c7bb_Images/61338374ecef87bfdfd1c7bb_Image_6.jpeg,liked,5.246980764,,,,,,,,,,,,
61338374ecef87bfdfd1c7bb,,,,,,,space,1.0203,NAN,,NAN,,0.0,88.0,88.0,88.0,1.0,89.0,Charlie,Acc,Participant_Images/61338374ecef87bfdfd1c7bb/61338374ecef87bfdfd1c7bb_Images/61338374ecef87bfdfd1c7bb_Image_21.jpeg,did not like,3.30081769,,,,,,,,,,,,
61338374ecef87bfdfd1c7bb,,,,,,,,,,,,,,,,,,,,,,,,c,0.0,1.6794,space,1.0363,0.0,0.0,0.0,0.0,1.0,,
61338374ecef87bfdfd1c7bb,,,,,,,,,3,,7,,0.0,89.0,89.0,89.0,1.0,90.0,Charlie,Acc,Participant_Images/61338374ecef87bfdfd1c7bb/61338374ecef87bfdfd1c7bb_Images/61338374ecef87bfdfd1c7bb_Image_11.jpeg,liked,1.661473164,,,,,,,,,,,,
61338374ecef87bfdfd1c7bb,,,,,space,1.1047,space,1.2131,NAN,,NAN,,0.0,90.0,90.0,90.0,1.0,91.0,Taylor,Acc,Participant_Images/61338374ecef87bfdfd1c7bb/61338374ecef87bfdfd1c7bb_Images/61338374ecef87bfdfd1c7bb_Image_20.jpeg,liked,3.613205605,,,,,,,,,,,,
61338374ecef87bfdfd1c7bb,,,,,,,space,3.7459,NAN,,NAN,,0.0,91.0,91.0,91.0,1.0,92.0,Taylor,Acc,Participant_Images/61338374ecef87bfdfd1c7bb/61338374ecef87bfdfd1c7bb_Images/61338374ecef87bfdfd1c7bb_Image_2.jpeg,liked,4.988446431,,,,,,,,,,,,
61338374ecef87bfdfd1c7bb,,,,,,,space,0.9466,NAN,,NAN,,0.0,92.0,92.0,92.0,1.0,93.0,Taylor,Acc,Participant_Images/61338374ecef87bfdfd1c7bb/61338374ecef87bfdfd1c7bb_Images/61338374ecef87bfdfd1c7bb_Image_5.jpeg,did not like,3.470791822,,,,,,,,,,,,
61338374ecef87bfdfd1c7bb,,,,,,,space,5.0989,NAN,,NAN,,0.0,93.0,93.0,93.0,1.0,94.0,Taylor,Acc,Participant_Images/61338374ecef87bfdfd1c7bb/61338374ecef87bfdfd1c7bb_Images/61338374ecef87bfdfd1c7bb_Image_26.jpeg,liked,3.820572462,,,,,,,,,,,,
61338374ecef87bfdfd1c7bb,,,,,,,,,,,,,,,,,,,,,,,,,999.0,,space,2.6876,0.0,0.0,0.0,0.0,1.0,,
61338374ecef87bfdfd1c7bb,,,,,,,,,NAN,,NAN,,0.0,94.0,94.0,94.0,1.0,95.0,Taylor,Acc,Participant_Images/61338374ecef87bfdfd1c7bb/61338374ecef87bfdfd1c7bb_Images/61338374ecef87bfdfd1c7bb_Image_25.jpeg,did not like,2.455989137,,,,,,,,,,,,
61338374ecef87bfdfd1c7bb,,,,,,,space,1.5869,NAN,,NAN,,0.0,95.0,95.0,95.0,1.0,96.0,Taylor,Acc,Participant_Images/61338374ecef87bfdfd1c7bb/61338374ecef87bfdfd1c7bb_Images/61338374ecef87bfdfd1c7bb_Image_12.jpeg,did not like,3.79605092,,,,,,,,,,,,
61338374ecef87bfdfd1c7bb,,,,,,,space,1.6358,NAN,,NAN,,0.0,96.0,96.0,96.0,1.0,97.0,Taylor,Acc,Participant_Images/61338374ecef87bfdfd1c7bb/61338374ecef87bfdfd1c7bb_Images/61338374ecef87bfdfd1c7bb_Image_19.jpeg,liked,3.562416326,,,,,,,,,,,,
61338374ecef87bfdfd1c7bb,,,,,,,space,0.3786,NAN,,NAN,,0.0,97.0,97.0,97.0,1.0,98.0,Taylor,Acc,Participant_Images/61338374ecef87bfdfd1c7bb/61338374ecef87bfdfd1c7bb_Images/61338374ecef87bfdfd1c7bb_Image_15.jpeg,liked,2.843822497,,,,,,,,,,,,
61338374ecef87bfdfd1c7bb,,,,,,,space,1.6947,NAN,,NAN,,0.0,98.0,98.0,98.0,1.0,99.0,Taylor,Acc,Participant_Images/61338374ecef87bfdfd1c7bb/61338374ecef87bfdfd1c7bb_Images/61338374ecef87bfdfd1c7bb_Image_4.jpeg,liked,3.546495948,,,,,,,,,,,,
61338374ecef87bfdfd1c7bb,,,,,,,,,,,,,,,,,,,,,,,,c,0.0,2.9994,space,1.598,0.0,0.0,0.0,0.0,1.0,,
61338374ecef87bfdfd1c7bb,,,,,,,,,NAN,,NAN,,0.0,99.0,99.0,99.0,1.0,100.0,Taylor,Acc,Participant_Images/61338374ecef87bfdfd1c7bb/61338374ecef87bfdfd1c7bb_Images/61338374ecef87bfdfd1c7bb_Image_14.jpeg,did not like,1.672012706,,,,,,,,,,,,
61338374ecef87bfdfd1c7bb,,,,,,,space,0.7185,NAN,,NAN,,0.0,100.0,100.0,100.0,1.0,101.0,Taylor,Acc,Participant_Images/61338374ecef87bfdfd1c7bb/61338374ecef87bfdfd1c7bb_Images/61338374ecef87bfdfd1c7bb_Image_17.jpeg,liked,4.942172136,,,,,,,,,,,,
61338374ecef87bfdfd1c7bb,,,,,,,space,0.7199,NAN,,NAN,,0.0,101.0,101.0,101.0,1.0,102.0,Taylor,Acc,Participant_Images/61338374ecef87bfdfd1c7bb/61338374ecef87bfdfd1c7bb_Images/61338374ecef87bfdfd1c7bb_Image_28.jpeg,did not like,2.50187214,,,,,,,,,,,,
61338374ecef87bfdfd1c7bb,,,,,,,space,2.0021,NAN,,NAN,,0.0,102.0,102.0,102.0,1.0,103.0,Taylor,Acc,Participant_Images/61338374ecef87bfdfd1c7bb/61338374ecef87bfdfd1c7bb_Images/61338374ecef87bfdfd1c7bb_Image_3.jpeg,liked,2.071164779,,,,,,,,,,,,
61338374ecef87bfdfd1c7bb,,,,,,,space,0.905,NAN,,NAN,,0.0,103.0,103.0,103.0,1.0,104.0,Taylor,Acc,Participant_Images/61338374ecef87bfdfd1c7bb/61338374ecef87bfdfd1c7bb_Images/61338374ecef87bfdfd1c7bb_Image_30.jpeg,liked,5.336503566,,,,,,,,,,,,
61338374ecef87bfdfd1c7bb,,,,,,,,,,,,,,,,,,,,,,,,c,0.0,3.877,space,1.2064,0.0,0.0,0.0,0.0,1.0,,
61338374ecef87bfdfd1c7bb,,,,,,,,,NAN,,NAN,,0.0,104.0,104.0,104.0,1.0,105.0,Taylor,Acc,Participant_Images/61338374ecef87bfdfd1c7bb/61338374ecef87bfdfd1c7bb_Images/61338374ecef87bfdfd1c7bb_Image_1.jpeg,liked,2.642157193,,,,,,,,,,,,
61338374ecef87bfdfd1c7bb,,,,,,,space,3.8128,NAN,,NAN,,0.0,105.0,105.0,105.0,1.0,106.0,Taylor,Acc,Participant_Images/61338374ecef87bfdfd1c7bb/61338374ecef87bfdfd1c7bb_Images/61338374ecef87bfdfd1c7bb_Image_16.jpeg,did not like,4.456234322,,,,,,,,,,,,
61338374ecef87bfdfd1c7bb,,,,,,,space,7.8549,NAN,,NAN,,0.0,106.0,106.0,106.0,1.0,107.0,Taylor,Acc,Participant_Images/61338374ecef87bfdfd1c7bb/61338374ecef87bfdfd1c7bb_Images/61338374ecef87bfdfd1c7bb_Image_11.jpeg,liked,4.438512181,,,,,,,,,,,,
61338374ecef87bfdfd1c7bb,,,,,,,space,3.31,NAN,,NAN,,0.0,107.0,107.0,107.0,1.0,108.0,Taylor,Acc,Participant_Images/61338374ecef87bfdfd1c7bb/61338374ecef87bfdfd1c7bb_Images/61338374ecef87bfdfd1c7bb_Image_7.jpeg,liked,2.682944783,,,,,,,,,,,,
61338374ecef87bfdfd1c7bb,,,,,,,space,5.3797,NAN,,NAN,,0.0,108.0,108.0,108.0,1.0,109.0,Taylor,Acc,Participant_Images/61338374ecef87bfdfd1c7bb/61338374ecef87bfdfd1c7bb_Images/61338374ecef87bfdfd1c7bb_Image_21.jpeg,liked,4.51984296,,,,,,,,,,,,
61338374ecef87bfdfd1c7bb,,,,,,,,,,,,,,,,,,,,,,,,c,0.0,2.0943,space,0.7964,0.0,0.0,0.0,0.0,1.0,,
61338374ecef87bfdfd1c7bb,,,,,,,,,NAN,,NAN,,0.0,109.0,109.0,109.0,1.0,110.0,Taylor,Acc,Participant_Images/61338374ecef87bfdfd1c7bb/61338374ecef87bfdfd1c7bb_Images/61338374ecef87bfdfd1c7bb_Image_24.jpeg,liked,3.195382774,,,,,,,,,,,,
61338374ecef87bfdfd1c7bb,,,,,,,space,0.5302,NAN,,NAN,,0.0,110.0,110.0,110.0,1.0,111.0,Taylor,Acc,Participant_Images/61338374ecef87bfdfd1c7bb/61338374ecef87bfdfd1c7bb_Images/61338374ecef87bfdfd1c7bb_Image_13.jpeg,did not like,1.779333479,,,,,,,,,,,,
61338374ecef87bfdfd1c7bb,,,,,,,space,1.2265,NAN,,NAN,,0.0,111.0,111.0,111.0,1.0,112.0,Taylor,Acc,Participant_Images/61338374ecef87bfdfd1c7bb/61338374ecef87bfdfd1c7bb_Images/61338374ecef87bfdfd1c7bb_Image_23.jpeg,did not like,4.312468682,,,,,,,,,,,,
61338374ecef87bfdfd1c7bb,,,,,,,space,5.4925,NAN,,NAN,,0.0,112.0,112.0,112.0,1.0,113.0,Taylor,Acc,Participant_Images/61338374ecef87bfdfd1c7bb/61338374ecef87bfdfd1c7bb_Images/61338374ecef87bfdfd1c7bb_Image_22.jpeg,liked,4.940433059,,,,,,,,,,,,
61338374ecef87bfdfd1c7bb,,,,,,,space,9.279,NAN,,NAN,,0.0,113.0,113.0,113.0,1.0,114.0,Taylor,Acc,Participant_Images/61338374ecef87bfdfd1c7bb/61338374ecef87bfdfd1c7bb_Images/61338374ecef87bfdfd1c7bb_Image_6.jpeg,liked,2.7105123,,,,,,,,,,,,
61338374ecef87bfdfd1c7bb,,,,,,,,,,,,,,,,,,,,,,,,,999.0,,space,1.7957,0.0,0.0,0.0,0.0,1.0,,
61338374ecef87bfdfd1c7bb,,,,,,,,,NAN,,NAN,,0.0,114.0,114.0,114.0,1.0,115.0,Taylor,Acc,Participant_Images/61338374ecef87bfdfd1c7bb/61338374ecef87bfdfd1c7bb_Images/61338374ecef87bfdfd1c7bb_Image_27.jpeg,liked,3.602308302,,,,,,,,,,,,
61338374ecef87bfdfd1c7bb,,,,,,,space,9.9104,NAN,,NAN,,0.0,115.0,115.0,115.0,1.0,116.0,Taylor,Acc,Participant_Images/61338374ecef87bfdfd1c7bb/61338374ecef87bfdfd1c7bb_Images/61338374ecef87bfdfd1c7bb_Image_9.jpeg,liked,4.106391878,,,,,,,,,,,,
61338374ecef87bfdfd1c7bb,,,,,,,space,0.5202,NAN,,NAN,,0.0,116.0,116.0,116.0,1.0,117.0,Taylor,Acc,Participant_Images/61338374ecef87bfdfd1c7bb/61338374ecef87bfdfd1c7bb_Images/61338374ecef87bfdfd1c7bb_Image_8.jpeg,liked,3.799433026,,,,,,,,,,,,
61338374ecef87bfdfd1c7bb,,,,,,,space,1.9761,NAN,,NAN,,0.0,117.0,117.0,117.0,1.0,118.0,Taylor,Acc,Participant_Images/61338374ecef87bfdfd1c7bb/61338374ecef87bfdfd1c7bb_Images/61338374ecef87bfdfd1c7bb_Image_29.jpeg,did not like,5.246980764,,,,,,,,,,,,
61338374ecef87bfdfd1c7bb,,,,,,,space,12.4119,NAN,,NAN,,0.0,118.0,118.0,118.0,1.0,119.0,Taylor,Acc,Participant_Images/61338374ecef87bfdfd1c7bb/61338374ecef87bfdfd1c7bb_Images/61338374ecef87bfdfd1c7bb_Image_10.jpeg,liked,3.30081769,,,,,,,,,,,,
61338374ecef87bfdfd1c7bb,,,,,,,,,,,,,,,,,,,,,,,,,999.0,,space,6.3507,0.0,0.0,0.0,0.0,1.0,,
61338374ecef87bfdfd1c7bb,,,,,,,,,2,,8,,0.0,119.0,119.0,119.0,1.0,120.0,Taylor,Acc,Participant_Images/61338374ecef87bfdfd1c7bb/61338374ecef87bfdfd1c7bb_Images/61338374ecef87bfdfd1c7bb_Image_18.jpeg,liked,1.661473164,,,,,,,,,,,,
61338374ecef87bfdfd1c7bb,,,,,space,1.3234,space,0.7989,NAN,,NAN,,0.0,120.0,120.0,120.0,1.0,121.0,Sam,Rej,Participant_Images/61338374ecef87bfdfd1c7bb/61338374ecef87bfdfd1c7bb_Images/61338374ecef87bfdfd1c7bb_Image_18.jpeg,liked,3.613205605,,,,,,,,,,,,
61338374ecef87bfdfd1c7bb,,,,,,,space,0.1796,NAN,,NAN,,0.0,121.0,121.0,121.0,1.0,122.0,Sam,Rej,Participant_Images/61338374ecef87bfdfd1c7bb/61338374ecef87bfdfd1c7bb_Images/61338374ecef87bfdfd1c7bb_Image_10.jpeg,did not like,4.988446431,,,,,,,,,,,,
61338374ecef87bfdfd1c7bb,,,,,,,space,4.2976,NAN,,NAN,,0.0,122.0,122.0,122.0,1.0,123.0,Sam,Rej,Participant_Images/61338374ecef87bfdfd1c7bb/61338374ecef87bfdfd1c7bb_Images/61338374ecef87bfdfd1c7bb_Image_1.jpeg,liked,3.470791822,,,,,,,,,,,,
61338374ecef87bfdfd1c7bb,,,,,,,space,4.2102,NAN,,NAN,,0.0,123.0,123.0,123.0,1.0,124.0,Sam,Rej,Participant_Images/61338374ecef87bfdfd1c7bb/61338374ecef87bfdfd1c7bb_Images/61338374ecef87bfdfd1c7bb_Image_14.jpeg,did not like,3.820572462,,,,,,,,,,,,
61338374ecef87bfdfd1c7bb,,,,,,,,,,,,,,,,,,,,,,,,,999.0,,space,2.2903,0.0,0.0,0.0,0.0,1.0,,
61338374ecef87bfdfd1c7bb,,,,,,,,,NAN,,NAN,,0.0,124.0,124.0,124.0,1.0,125.0,Sam,Rej,Participant_Images/61338374ecef87bfdfd1c7bb/61338374ecef87bfdfd1c7bb_Images/61338374ecef87bfdfd1c7bb_Image_19.jpeg,did not like,2.455989137,,,,,,,,,,,,
61338374ecef87bfdfd1c7bb,,,,,,,space,0.9755,NAN,,NAN,,0.0,125.0,125.0,125.0,1.0,126.0,Sam,Rej,Participant_Images/61338374ecef87bfdfd1c7bb/61338374ecef87bfdfd1c7bb_Images/61338374ecef87bfdfd1c7bb_Image_8.jpeg,did not like,3.79605092,,,,,,,,,,,,
61338374ecef87bfdfd1c7bb,,,,,,,space,7.3328,NAN,,NAN,,0.0,126.0,126.0,126.0,1.0,127.0,Sam,Rej,Participant_Images/61338374ecef87bfdfd1c7bb/61338374ecef87bfdfd1c7bb_Images/61338374ecef87bfdfd1c7bb_Image_17.jpeg,did not like,3.562416326,,,,,,,,,,,,
61338374ecef87bfdfd1c7bb,,,,,,,space,1.813,NAN,,NAN,,0.0,127.0,127.0,127.0,1.0,128.0,Sam,Rej,Participant_Images/61338374ecef87bfdfd1c7bb/61338374ecef87bfdfd1c7bb_Images/61338374ecef87bfdfd1c7bb_Image_20.jpeg,did not like,2.843822497,,,,,,,,,,,,
61338374ecef87bfdfd1c7bb,,,,,,,space,4.9561,NAN,,NAN,,0.0,128.0,128.0,128.0,1.0,129.0,Sam,Rej,Participant_Images/61338374ecef87bfdfd1c7bb/61338374ecef87bfdfd1c7bb_Images/61338374ecef87bfdfd1c7bb_Image_26.jpeg,did not like,3.546495948,,,,,,,,,,,,
61338374ecef87bfdfd1c7bb,,,,,,,,,,,,,,,,,,,,,,,,,999.0,,space,4.9956,0.0,0.0,0.0,0.0,1.0,,
61338374ecef87bfdfd1c7bb,,,,,,,,,NAN,,NAN,,0.0,129.0,129.0,129.0,1.0,130.0,Sam,Rej,Participant_Images/61338374ecef87bfdfd1c7bb/61338374ecef87bfdfd1c7bb_Images/61338374ecef87bfdfd1c7bb_Image_24.jpeg,did not like,1.672012706,,,,,,,,,,,,
61338374ecef87bfdfd1c7bb,,,,,,,space,0.5568,NAN,,NAN,,0.0,130.0,130.0,130.0,1.0,131.0,Sam,Rej,Participant_Images/61338374ecef87bfdfd1c7bb/61338374ecef87bfdfd1c7bb_Images/61338374ecef87bfdfd1c7bb_Image_6.jpeg,did not like,4.942172136,,,,,,,,,,,,
61338374ecef87bfdfd1c7bb,,,,,,,space,7.8509,NAN,,NAN,,0.0,131.0,131.0,131.0,1.0,132.0,Sam,Rej,Participant_Images/61338374ecef87bfdfd1c7bb/61338374ecef87bfdfd1c7bb_Images/61338374ecef87bfdfd1c7bb_Image_5.jpeg,did not like,2.50187214,,,,,,,,,,,,
61338374ecef87bfdfd1c7bb,,,,,,,space,2.7039,NAN,,NAN,,0.0,132.0,132.0,132.0,1.0,133.0,Sam,Rej,Participant_Images/61338374ecef87bfdfd1c7bb/61338374ecef87bfdfd1c7bb_Images/61338374ecef87bfdfd1c7bb_Image_30.jpeg,did not like,2.071164779,,,,,,,,,,,,
61338374ecef87bfdfd1c7bb,,,,,,,space,7.9866,NAN,,NAN,,0.0,133.0,133.0,133.0,1.0,134.0,Sam,Rej,Participant_Images/61338374ecef87bfdfd1c7bb/61338374ecef87bfdfd1c7bb_Images/61338374ecef87bfdfd1c7bb_Image_29.jpeg,did not like,5.336503566,,,,,,,,,,,,
61338374ecef87bfdfd1c7bb,,,,,,,,,,,,,,,,,,,,,,,,c,0.0,3.1999,space,1.0509,0.0,0.0,0.0,0.0,1.0,,
61338374ecef87bfdfd1c7bb,,,,,,,,,NAN,,NAN,,0.0,134.0,134.0,134.0,1.0,135.0,Sam,Rej,Participant_Images/61338374ecef87bfdfd1c7bb/61338374ecef87bfdfd1c7bb_Images/61338374ecef87bfdfd1c7bb_Image_15.jpeg,liked,2.642157193,,,,,,,,,,,,
61338374ecef87bfdfd1c7bb,,,,,,,space,2.3167,NAN,,NAN,,0.0,135.0,135.0,135.0,1.0,136.0,Sam,Rej,Participant_Images/61338374ecef87bfdfd1c7bb/61338374ecef87bfdfd1c7bb_Images/61338374ecef87bfdfd1c7bb_Image_27.jpeg,liked,4.456234322,,,,,,,,,,,,
61338374ecef87bfdfd1c7bb,,,,,,,space,0.5601,NAN,,NAN,,0.0,136.0,136.0,136.0,1.0,137.0,Sam,Rej,Participant_Images/61338374ecef87bfdfd1c7bb/61338374ecef87bfdfd1c7bb_Images/61338374ecef87bfdfd1c7bb_Image_12.jpeg,did not like,4.438512181,,,,,,,,,,,,
61338374ecef87bfdfd1c7bb,,,,,,,space,0.3681,NAN,,NAN,,0.0,137.0,137.0,137.0,1.0,138.0,Sam,Rej,Participant_Images/61338374ecef87bfdfd1c7bb/61338374ecef87bfdfd1c7bb_Images/61338374ecef87bfdfd1c7bb_Image_9.jpeg,liked,2.682944783,,,,,,,,,,,,
61338374ecef87bfdfd1c7bb,,,,,,,space,4.4759,NAN,,NAN,,0.0,138.0,138.0,138.0,1.0,139.0,Sam,Rej,Participant_Images/61338374ecef87bfdfd1c7bb/61338374ecef87bfdfd1c7bb_Images/61338374ecef87bfdfd1c7bb_Image_3.jpeg,did not like,4.51984296,,,,,,,,,,,,
61338374ecef87bfdfd1c7bb,,,,,,,,,,,,,,,,,,,,,,,,,999.0,,space,0.7213,0.0,0.0,0.0,0.0,1.0,,
61338374ecef87bfdfd1c7bb,,,,,,,,,NAN,,NAN,,0.0,139.0,139.0,139.0,1.0,140.0,Sam,Rej,Participant_Images/61338374ecef87bfdfd1c7bb/61338374ecef87bfdfd1c7bb_Images/61338374ecef87bfdfd1c7bb_Image_22.jpeg,did not like,3.195382774,,,,,,,,,,,,
61338374ecef87bfdfd1c7bb,,,,,,,space,0.7046,NAN,,NAN,,0.0,140.0,140.0,140.0,1.0,141.0,Sam,Rej,Participant_Images/61338374ecef87bfdfd1c7bb/61338374ecef87bfdfd1c7bb_Images/61338374ecef87bfdfd1c7bb_Image_21.jpeg,did not like,1.779333479,,,,,,,,,,,,
61338374ecef87bfdfd1c7bb,,,,,,,space,0.72,NAN,,NAN,,0.0,141.0,141.0,141.0,1.0,142.0,Sam,Rej,Participant_Images/61338374ecef87bfdfd1c7bb/61338374ecef87bfdfd1c7bb_Images/61338374ecef87bfdfd1c7bb_Image_13.jpeg,did not like,4.312468682,,,,,,,,,,,,
61338374ecef87bfdfd1c7bb,,,,,,,space,2.4825,NAN,,NAN,,0.0,142.0,142.0,142.0,1.0,143.0,Sam,Rej,Participant_Images/61338374ecef87bfdfd1c7bb/61338374ecef87bfdfd1c7bb_Images/61338374ecef87bfdfd1c7bb_Image_25.jpeg,liked,4.940433059,,,,,,,,,,,,
61338374ecef87bfdfd1c7bb,,,,,,,space,3.801,NAN,,NAN,,0.0,143.0,143.0,143.0,1.0,144.0,Sam,Rej,Participant_Images/61338374ecef87bfdfd1c7bb/61338374ecef87bfdfd1c7bb_Images/61338374ecef87bfdfd1c7bb_Image_2.jpeg,liked,2.7105123,,,,,,,,,,,,
61338374ecef87bfdfd1c7bb,,,,,,,,,,,,,,,,,,,,,,,,c,0.0,1.691,space,0.5104,0.0,0.0,0.0,0.0,1.0,,
61338374ecef87bfdfd1c7bb,,,,,,,,,NAN,,NAN,,0.0,144.0,144.0,144.0,1.0,145.0,Sam,Rej,Participant_Images/61338374ecef87bfdfd1c7bb/61338374ecef87bfdfd1c7bb_Images/61338374ecef87bfdfd1c7bb_Image_16.jpeg,did not like,3.602308302,,,,,,,,,,,,
61338374ecef87bfdfd1c7bb,,,,,,,space,4.5799,NAN,,NAN,,0.0,145.0,145.0,145.0,1.0,146.0,Sam,Rej,Participant_Images/61338374ecef87bfdfd1c7bb/61338374ecef87bfdfd1c7bb_Images/61338374ecef87bfdfd1c7bb_Image_23.jpeg,did not like,4.106391878,,,,,,,,,,,,
61338374ecef87bfdfd1c7bb,,,,,,,space,2.5877,NAN,,NAN,,0.0,146.0,146.0,146.0,1.0,147.0,Sam,Rej,Participant_Images/61338374ecef87bfdfd1c7bb/61338374ecef87bfdfd1c7bb_Images/61338374ecef87bfdfd1c7bb_Image_11.jpeg,liked,3.799433026,,,,,,,,,,,,
61338374ecef87bfdfd1c7bb,,,,,,,space,11.2063,NAN,,NAN,,0.0,147.0,147.0,147.0,1.0,148.0,Sam,Rej,Participant_Images/61338374ecef87bfdfd1c7bb/61338374ecef87bfdfd1c7bb_Images/61338374ecef87bfdfd1c7bb_Image_28.jpeg,liked,5.246980764,,,,,,,,,,,,
61338374ecef87bfdfd1c7bb,,,,,,,space,0.679,NAN,,NAN,,0.0,148.0,148.0,148.0,1.0,149.0,Sam,Rej,Participant_Images/61338374ecef87bfdfd1c7bb/61338374ecef87bfdfd1c7bb_Images/61338374ecef87bfdfd1c7bb_Image_4.jpeg,did not like,3.30081769,,,,,,,,,,,,
61338374ecef87bfdfd1c7bb,,,,,,,,,,,,,,,,,,,,,,,,c,0.0,1.7322,space,1.9379,0.0,0.0,0.0,0.0,1.0,,
61338374ecef87bfdfd1c7bb,,,,,,,,,2,,7,,0.0,149.0,149.0,149.0,1.0,150.0,Sam,Rej,Participant_Images/61338374ecef87bfdfd1c7bb/61338374ecef87bfdfd1c7bb_Images/61338374ecef87bfdfd1c7bb_Image_7.jpeg,did not like,1.661473164,,,,,,,,,,,,
61338374ecef87bfdfd1c7bb,,,,,,,,,,,,,,,,,,,,,,,,,,,,,,,,,,space,3.1261
