PROLIFIC_ID,endwelcomescreen_keys.keys,endwelcomescreen_keys.rt,endinstructionscreen_keys.keys,endinstructionscreen_keys.rt,endpartnermatch_keys.keys,endpartnermatch_keys.rt,sharenextphoto_key.keys,sharenextphoto_key.rt,salience_rating,key_resp.keys,stress_level,stresslevel_keypress.keys,entiretaskloop.thisRepN,entiretaskloop.thisTrialN,entiretaskloop.thisN,entiretaskloop.thisIndex,entiretaskloop.ran,TrialNumber,Partner,Condition,Photos,Feedback,FeedbackWait,choice_keys.keys,playlottery,choice_keys.rt,lotteryguess_keys.keys,resumeafterlottery_keys.keys,resumeafterlottery_keys.rt,lotteryloop.thisRepN,lotteryloop.thisTrialN,lotteryloop.thisN,lotteryloop.thisIndex,lotteryloop.ran,lotteryguess_keys.rt,end_screen_keys.keys,end_screen_keys.rt
615a084387075364a7462335,space,13.7783,,,,,,,,,,,,,,,,,,,,,,,,,,,,,,,,,,,
,,,,,,,,,,,,,,,,,,,,,,,,,,,,,,,,,,,,,
,,,space,16.8092,,,,,,,,,,,,,,,,,,,,,,,,,,,,,,,,,
,,,,,space,2.3108,space,1.0804,NAN,,NAN,,0,0,0,0,1,1,Taylor,Acc,Participant_Images/615a084387075364a7462335/615a084387075364a7462335_Images/615a084387075364a7462335_Image_16.jpeg,liked,3.613205605,,,,,,,,,,,,,,
,,,,,,,space,2.0366,NAN,,NAN,,0,1,1,1,1,2,Taylor,Acc,Participant_Images/615a084387075364a7462335/615a084387075364a7462335_Images/615a084387075364a7462335_Image_23.jpeg,liked,4.988446431,,,,,,,,,,,,,,
,,,,,,,space,0.7259,NAN,,NAN,,0,2,2,2,1,3,Taylor,Acc,Participant_Images/615a084387075364a7462335/615a084387075364a7462335_Images/615a084387075364a7462335_Image_20.jpeg,liked,3.470791822,,,,,,,,,,,,,,
,,,,,,,space,1.2614,NAN,,NAN,,0,3,3,3,1,4,Taylor,Acc,Participant_Images/615a084387075364a7462335/615a084387075364a7462335_Images/615a084387075364a7462335_Image_22.jpeg,did not like,3.820572462,,,,,,,,,,,,,,
,,,,,,,,,,,,,,,,,,,,,,,,s,1,3.9244,,space,1.5197,0,0,0,0,1,,,
,,,,,,,,,NAN,,NAN,,0,4,4,4,1,5,Taylor,Acc,Participant_Images/615a084387075364a7462335/615a084387075364a7462335_Images/615a084387075364a7462335_Image_17.jpeg,liked,2.455989137,,,,,,,,,,,,,,
,,,,,,,space,1.3498,NAN,,NAN,,0,5,5,5,1,6,Taylor,Acc,Participant_Images/615a084387075364a7462335/615a084387075364a7462335_Images/615a084387075364a7462335_Image_28.jpeg,liked,3.79605092,,,,,,,,,,,,,,
,,,,,,,space,1.139,NAN,,NAN,,0,6,6,6,1,7,Taylor,Acc,Participant_Images/615a084387075364a7462335/615a084387075364a7462335_Images/615a084387075364a7462335_Image_19.jpeg,liked,3.562416326,,,,,,,,,,,,,,
,,,,,,,space,1.0459,NAN,,NAN,,0,7,7,7,1,8,Taylor,Acc,Participant_Images/615a084387075364a7462335/615a084387075364a7462335_Images/615a084387075364a7462335_Image_25.jpeg,did not like,2.843822497,,,,,,,,,,,,,,
,,,,,,,space,0.7955,NAN,,NAN,,0,8,8,8,1,9,Taylor,Acc,Participant_Images/615a084387075364a7462335/615a084387075364a7462335_Images/615a084387075364a7462335_Image_7.jpeg,did not like,3.546495948,,,,,,,,,,,,,,
,,,,,,,,,,,,,,,,,,,,,,,,s,1,1.8807,h,space,0.8613,0,0,0,0,1,1.4553,,
,,,,,,,,,NAN,,NAN,,0,9,9,9,1,10,Taylor,Acc,Participant_Images/615a084387075364a7462335/615a084387075364a7462335_Images/615a084387075364a7462335_Image_12.jpeg,liked,1.672012706,,,,,,,,,,,,,,
,,,,,,,space,0.8057,NAN,,NAN,,0,10,10,10,1,11,Taylor,Acc,Participant_Images/615a084387075364a7462335/615a084387075364a7462335_Images/615a084387075364a7462335_Image_5.jpeg,liked,4.942172136,,,,,,,,,,,,,,
,,,,,,,space,2.0517,NAN,,NAN,,0,11,11,11,1,12,Taylor,Acc,Participant_Images/615a084387075364a7462335/615a084387075364a7462335_Images/615a084387075364a7462335_Image_9.jpeg,did not like,2.50187214,,,,,,,,,,,,,,
,,,,,,,space,1.8836,NAN,,NAN,,0,12,12,12,1,13,Taylor,Acc,Participant_Images/615a084387075364a7462335/615a084387075364a7462335_Images/615a084387075364a7462335_Image_24.jpeg,liked,2.071164779,,,,,,,,,,,,,,
,,,,,,,space,2.5393,NAN,,NAN,,0,13,13,13,1,14,Taylor,Acc,Participant_Images/615a084387075364a7462335/615a084387075364a7462335_Images/615a084387075364a7462335_Image_2.jpeg,did not like,5.336503566,,,,,,,,,,,,,,
,,,,,,,,,,,,,,,,,,,,,,,,c,0,2.26,,space,1.2716,0,0,0,0,1,,,
,,,,,,,,,NAN,,NAN,,0,14,14,14,1,15,Taylor,Acc,Participant_Images/615a084387075364a7462335/615a084387075364a7462335_Images/615a084387075364a7462335_Image_14.jpeg,liked,2.642157193,,,,,,,,,,,,,,
,,,,,,,space,1.3263,NAN,,NAN,,0,15,15,15,1,16,Taylor,Acc,Participant_Images/615a084387075364a7462335/615a084387075364a7462335_Images/615a084387075364a7462335_Image_29.jpeg,liked,4.456234322,,,,,,,,,,,,,,
,,,,,,,space,1.7831,NAN,,NAN,,0,16,16,16,1,17,Taylor,Acc,Participant_Images/615a084387075364a7462335/615a084387075364a7462335_Images/615a084387075364a7462335_Image_13.jpeg,liked,4.438512181,,,,,,,,,,,,,,
,,,,,,,space,1.5042,NAN,,NAN,,0,17,17,17,1,18,Taylor,Acc,Participant_Images/615a084387075364a7462335/615a084387075364a7462335_Images/615a084387075364a7462335_Image_15.jpeg,did not like,2.682944783,,,,,,,,,,,,,,
,,,,,,,space,0.973,NAN,,NAN,,0,18,18,18,1,19,Taylor,Acc,Participant_Images/615a084387075364a7462335/615a084387075364a7462335_Images/615a084387075364a7462335_Image_26.jpeg,did not like,4.51984296,,,,,,,,,,,,,,
,,,,,,,,,,,,,,,,,,,,,,,,c,0,2.2104,,space,1.056,0,0,0,0,1,,,
,,,,,,,,,NAN,,NAN,,0,19,19,19,1,20,Taylor,Acc,Participant_Images/615a084387075364a7462335/615a084387075364a7462335_Images/615a084387075364a7462335_Image_21.jpeg,liked,3.195382774,,,,,,,,,,,,,,
,,,,,,,space,1.0871,NAN,,NAN,,0,20,20,20,1,21,Taylor,Acc,Participant_Images/615a084387075364a7462335/615a084387075364a7462335_Images/615a084387075364a7462335_Image_8.jpeg,liked,1.779333479,,,,,,,,,,,,,,
,,,,,,,space,0.9389,NAN,,NAN,,0,21,21,21,1,22,Taylor,Acc,Participant_Images/615a084387075364a7462335/615a084387075364a7462335_Images/615a084387075364a7462335_Image_10.jpeg,liked,4.312468682,,,,,,,,,,,,,,
,,,,,,,space,1.9069,NAN,,NAN,,0,22,22,22,1,23,Taylor,Acc,Participant_Images/615a084387075364a7462335/615a084387075364a7462335_Images/615a084387075364a7462335_Image_6.jpeg,liked,4.940433059,,,,,,,,,,,,,,
,,,,,,,space,2.2504,NAN,,NAN,,0,23,23,23,1,24,Taylor,Acc,Participant_Images/615a084387075364a7462335/615a084387075364a7462335_Images/615a084387075364a7462335_Image_18.jpeg,liked,2.7105123,,,,,,,,,,,,,,
,,,,,,,,,,,,,,,,,,,,,,,,c,0,2.256,,space,1.0999,0,0,0,0,1,,,
,,,,,,,,,NAN,,NAN,,0,24,24,24,1,25,Taylor,Acc,Participant_Images/615a084387075364a7462335/615a084387075364a7462335_Images/615a084387075364a7462335_Image_27.jpeg,did not like,3.602308302,,,,,,,,,,,,,,
,,,,,,,space,2.0809,NAN,,NAN,,0,25,25,25,1,26,Taylor,Acc,Participant_Images/615a084387075364a7462335/615a084387075364a7462335_Images/615a084387075364a7462335_Image_1.jpeg,liked,4.106391878,,,,,,,,,,,,,,
,,,,,,,space,0.8166,NAN,,NAN,,0,26,26,26,1,27,Taylor,Acc,Participant_Images/615a084387075364a7462335/615a084387075364a7462335_Images/615a084387075364a7462335_Image_11.jpeg,liked,3.799433026,,,,,,,,,,,,,,
,,,,,,,space,1.6255,NAN,,NAN,,0,27,27,27,1,28,Taylor,Acc,Participant_Images/615a084387075364a7462335/615a084387075364a7462335_Images/615a084387075364a7462335_Image_3.jpeg,liked,5.246980764,,,,,,,,,,,,,,
,,,,,,,space,1.1642,NAN,,NAN,,0,28,28,28,1,29,Taylor,Acc,Participant_Images/615a084387075364a7462335/615a084387075364a7462335_Images/615a084387075364a7462335_Image_30.jpeg,did not like,3.30081769,,,,,,,,,,,,,,
,,,,,,,,,,,,,,,,,,,,,,,,c,0,1.2996,,space,2.2778,0,0,0,0,1,,,
,,,,,,,,,2,,4,,0,29,29,29,1,30,Taylor,Acc,Participant_Images/615a084387075364a7462335/615a084387075364a7462335_Images/615a084387075364a7462335_Image_4.jpeg,liked,1.661473164,,,,,,,,,,,,,,
,,,,,space,1.8138,space,0.9722,NAN,,NAN,,0,30,30,30,1,31,Riley,Acc,Participant_Images/615a084387075364a7462335/615a084387075364a7462335_Images/615a084387075364a7462335_Image_14.jpeg,liked,3.613205605,,,,,,,,,,,,,,
,,,,,,,space,1.7142,NAN,,NAN,,0,31,31,31,1,32,Riley,Acc,Participant_Images/615a084387075364a7462335/615a084387075364a7462335_Images/615a084387075364a7462335_Image_10.jpeg,liked,4.988446431,,,,,,,,,,,,,,
,,,,,,,space,1.3838,NAN,,NAN,,0,32,32,32,1,33,Riley,Acc,Participant_Images/615a084387075364a7462335/615a084387075364a7462335_Images/615a084387075364a7462335_Image_9.jpeg,liked,3.470791822,,,,,,,,,,,,,,
,,,,,,,space,1.4105,NAN,,NAN,,0,33,33,33,1,34,Riley,Acc,Participant_Images/615a084387075364a7462335/615a084387075364a7462335_Images/615a084387075364a7462335_Image_2.jpeg,liked,3.820572462,,,,,,,,,,,,,,
,,,,,,,,,,,,,,,,,,,,,,,,c,0,1.9456,,space,2.7075,0,0,0,0,1,,,
,,,,,,,,,NAN,,NAN,,0,34,34,34,1,35,Riley,Acc,Participant_Images/615a084387075364a7462335/615a084387075364a7462335_Images/615a084387075364a7462335_Image_27.jpeg,did not like,2.455989137,,,,,,,,,,,,,,
,,,,,,,space,3.2603,NAN,,NAN,,0,35,35,35,1,36,Riley,Acc,Participant_Images/615a084387075364a7462335/615a084387075364a7462335_Images/615a084387075364a7462335_Image_22.jpeg,liked,3.79605092,,,,,,,,,,,,,,
,,,,,,,space,1.2837,NAN,,NAN,,0,36,36,36,1,37,Riley,Acc,Participant_Images/615a084387075364a7462335/615a084387075364a7462335_Images/615a084387075364a7462335_Image_21.jpeg,liked,3.562416326,,,,,,,,,,,,,,
,,,,,,,space,2.0725,NAN,,NAN,,0,37,37,37,1,38,Riley,Acc,Participant_Images/615a084387075364a7462335/615a084387075364a7462335_Images/615a084387075364a7462335_Image_5.jpeg,liked,2.843822497,,,,,,,,,,,,,,
,,,,,,,space,1.6634,NAN,,NAN,,0,38,38,38,1,39,Riley,Acc,Participant_Images/615a084387075364a7462335/615a084387075364a7462335_Images/615a084387075364a7462335_Image_18.jpeg,did not like,3.546495948,,,,,,,,,,,,,,
,,,,,,,,,,,,,,,,,,,,,,,,c,0,2.36,,space,1.3534,0,0,0,0,1,,,
,,,,,,,,,NAN,,NAN,,0,39,39,39,1,40,Riley,Acc,Participant_Images/615a084387075364a7462335/615a084387075364a7462335_Images/615a084387075364a7462335_Image_7.jpeg,did not like,1.672012706,,,,,,,,,,,,,,
,,,,,,,space,1.183,NAN,,NAN,,0,40,40,40,1,41,Riley,Acc,Participant_Images/615a084387075364a7462335/615a084387075364a7462335_Images/615a084387075364a7462335_Image_11.jpeg,liked,4.942172136,,,,,,,,,,,,,,
,,,,,,,space,1.2659,NAN,,NAN,,0,41,41,41,1,42,Riley,Acc,Participant_Images/615a084387075364a7462335/615a084387075364a7462335_Images/615a084387075364a7462335_Image_16.jpeg,liked,2.50187214,,,,,,,,,,,,,,
,,,,,,,space,0.5397,NAN,,NAN,,0,42,42,42,1,43,Riley,Acc,Participant_Images/615a084387075364a7462335/615a084387075364a7462335_Images/615a084387075364a7462335_Image_20.jpeg,did not like,2.071164779,,,,,,,,,,,,,,
,,,,,,,space,1.4168,NAN,,NAN,,0,43,43,43,1,44,Riley,Acc,Participant_Images/615a084387075364a7462335/615a084387075364a7462335_Images/615a084387075364a7462335_Image_3.jpeg,liked,5.336503566,,,,,,,,,,,,,,
,,,,,,,,,,,,,,,,,,,,,,,,c,0,1.5583,,space,2.0556,0,0,0,0,1,,,
,,,,,,,,,NAN,,NAN,,0,44,44,44,1,45,Riley,Acc,Participant_Images/615a084387075364a7462335/615a084387075364a7462335_Images/615a084387075364a7462335_Image_6.jpeg,liked,2.642157193,,,,,,,,,,,,,,
,,,,,,,space,1.642,NAN,,NAN,,0,45,45,45,1,46,Riley,Acc,Participant_Images/615a084387075364a7462335/615a084387075364a7462335_Images/615a084387075364a7462335_Image_26.jpeg,liked,4.456234322,,,,,,,,,,,,,,
,,,,,,,space,1.2728,NAN,,NAN,,0,46,46,46,1,47,Riley,Acc,Participant_Images/615a084387075364a7462335/615a084387075364a7462335_Images/615a084387075364a7462335_Image_15.jpeg,liked,4.438512181,,,,,,,,,,,,,,
,,,,,,,space,1.0774,NAN,,NAN,,0,47,47,47,1,48,Riley,Acc,Participant_Images/615a084387075364a7462335/615a084387075364a7462335_Images/615a084387075364a7462335_Image_1.jpeg,liked,2.682944783,,,,,,,,,,,,,,
,,,,,,,space,1.1059,NAN,,NAN,,0,48,48,48,1,49,Riley,Acc,Participant_Images/615a084387075364a7462335/615a084387075364a7462335_Images/615a084387075364a7462335_Image_17.jpeg,liked,4.51984296,,,,,,,,,,,,,,
,,,,,,,,,,,,,,,,,,,,,,,,c,0,2.2344,,space,1.0884,0,0,0,0,1,,,
,,,,,,,,,NAN,,NAN,,0,49,49,49,1,50,Riley,Acc,Participant_Images/615a084387075364a7462335/615a084387075364a7462335_Images/615a084387075364a7462335_Image_30.jpeg,liked,3.195382774,,,,,,,,,,,,,,
,,,,,,,space,0.9519,NAN,,NAN,,0,50,50,50,1,51,Riley,Acc,Participant_Images/615a084387075364a7462335/615a084387075364a7462335_Images/615a084387075364a7462335_Image_12.jpeg,did not like,1.779333479,,,,,,,,,,,,,,
,,,,,,,space,1.5505,NAN,,NAN,,0,51,51,51,1,52,Riley,Acc,Participant_Images/615a084387075364a7462335/615a084387075364a7462335_Images/615a084387075364a7462335_Image_13.jpeg,did not like,4.312468682,,,,,,,,,,,,,,
,,,,,,,space,1.128,NAN,,NAN,,0,52,52,52,1,53,Riley,Acc,Participant_Images/615a084387075364a7462335/615a084387075364a7462335_Images/615a084387075364a7462335_Image_25.jpeg,did not like,4.940433059,,,,,,,,,,,,,,
,,,,,,,space,1.5061,NAN,,NAN,,0,53,53,53,1,54,Riley,Acc,Participant_Images/615a084387075364a7462335/615a084387075364a7462335_Images/615a084387075364a7462335_Image_29.jpeg,liked,2.7105123,,,,,,,,,,,,,,
,,,,,,,,,,,,,,,,,,,,,,,,,999,,,space,6.8522,0,0,0,0,1,,,
,,,,,,,,,NAN,,NAN,,0,54,54,54,1,55,Riley,Acc,Participant_Images/615a084387075364a7462335/615a084387075364a7462335_Images/615a084387075364a7462335_Image_23.jpeg,liked,3.602308302,,,,,,,,,,,,,,
,,,,,,,space,1.7333,NAN,,NAN,,0,55,55,55,1,56,Riley,Acc,Participant_Images/615a084387075364a7462335/615a084387075364a7462335_Images/615a084387075364a7462335_Image_28.jpeg,did not like,4.106391878,,,,,,,,,,,,,,
,,,,,,,space,0.4973,NAN,,NAN,,0,56,56,56,1,57,Riley,Acc,Participant_Images/615a084387075364a7462335/615a084387075364a7462335_Images/615a084387075364a7462335_Image_24.jpeg,did not like,3.799433026,,,,,,,,,,,,,,
,,,,,,,space,0.5284,NAN,,NAN,,0,57,57,57,1,58,Riley,Acc,Participant_Images/615a084387075364a7462335/615a084387075364a7462335_Images/615a084387075364a7462335_Image_4.jpeg,liked,5.246980764,,,,,,,,,,,,,,
,,,,,,,space,0.772,NAN,,NAN,,0,58,58,58,1,59,Riley,Acc,Participant_Images/615a084387075364a7462335/615a084387075364a7462335_Images/615a084387075364a7462335_Image_8.jpeg,liked,3.30081769,,,,,,,,,,,,,,
,,,,,,,,,,,,,,,,,,,,,,,,c,0,1.4543,,space,3.2504,0,0,0,0,1,,,
,,,,,,,,,2,,4,,0,59,59,59,1,60,Riley,Acc,Participant_Images/615a084387075364a7462335/615a084387075364a7462335_Images/615a084387075364a7462335_Image_19.jpeg,liked,1.661473164,,,,,,,,,,,,,,
,,,,,space,3.0716,space,1.5398,NAN,,NAN,,0,60,60,60,1,61,Sam,Rej,Participant_Images/615a084387075364a7462335/615a084387075364a7462335_Images/615a084387075364a7462335_Image_21.jpeg,liked,3.613205605,,,,,,,,,,,,,,
,,,,,,,space,1.3781,NAN,,NAN,,0,61,61,61,1,62,Sam,Rej,Participant_Images/615a084387075364a7462335/615a084387075364a7462335_Images/615a084387075364a7462335_Image_16.jpeg,did not like,4.988446431,,,,,,,,,,,,,,
,,,,,,,space,0.8802,NAN,,NAN,,0,62,62,62,1,63,Sam,Rej,Participant_Images/615a084387075364a7462335/615a084387075364a7462335_Images/615a084387075364a7462335_Image_12.jpeg,did not like,3.470791822,,,,,,,,,,,,,,
,,,,,,,space,0.6075,NAN,,NAN,,0,63,63,63,1,64,Sam,Rej,Participant_Images/615a084387075364a7462335/615a084387075364a7462335_Images/615a084387075364a7462335_Image_23.jpeg,did not like,3.820572462,,,,,,,,,,,,,,
,,,,,,,,,,,,,,,,,,,,,,,,c,0,1.9138,,space,1.1329,0,0,0,0,1,,,
,,,,,,,,,NAN,,NAN,,0,64,64,64,1,65,Sam,Rej,Participant_Images/615a084387075364a7462335/615a084387075364a7462335_Images/615a084387075364a7462335_Image_27.jpeg,liked,2.455989137,,,,,,,,,,,,,,
,,,,,,,space,0.9411,NAN,,NAN,,0,65,65,65,1,66,Sam,Rej,Participant_Images/615a084387075364a7462335/615a084387075364a7462335_Images/615a084387075364a7462335_Image_15.jpeg,did not like,3.79605092,,,,,,,,,,,,,,
,,,,,,,space,0.9719,NAN,,NAN,,0,66,66,66,1,67,Sam,Rej,Participant_Images/615a084387075364a7462335/615a084387075364a7462335_Images/615a084387075364a7462335_Image_8.jpeg,did not like,3.562416326,,,,,,,,,,,,,,
,,,,,,,space,0.6285,NAN,,NAN,,0,67,67,67,1,68,Sam,Rej,Participant_Images/615a084387075364a7462335/615a084387075364a7462335_Images/615a084387075364a7462335_Image_11.jpeg,did not like,2.843822497,,,,,,,,,,,,,,
,,,,,,,space,0.4115,NAN,,NAN,,0,68,68,68,1,69,Sam,Rej,Participant_Images/615a084387075364a7462335/615a084387075364a7462335_Images/615a084387075364a7462335_Image_4.jpeg,liked,3.546495948,,,,,,,,,,,,,,
,,,,,,,,,,,,,,,,,,,,,,,,c,0,1.3555,,space,0.7222,0,0,0,0,1,,,
,,,,,,,,,NAN,,NAN,,0,69,69,69,1,70,Sam,Rej,Participant_Images/615a084387075364a7462335/615a084387075364a7462335_Images/615a084387075364a7462335_Image_3.jpeg,did not like,1.672012706,,,,,,,,,,,,,,
,,,,,,,space,1.9626,NAN,,NAN,,0,70,70,70,1,71,Sam,Rej,Participant_Images/615a084387075364a7462335/615a084387075364a7462335_Images/615a084387075364a7462335_Image_30.jpeg,liked,4.942172136,,,,,,,,,,,,,,
,,,,,,,space,0.6169,NAN,,NAN,,0,71,71,71,1,72,Sam,Rej,Participant_Images/615a084387075364a7462335/615a084387075364a7462335_Images/615a084387075364a7462335_Image_7.jpeg,did not like,2.50187214,,,,,,,,,,,,,,
,,,,,,,space,1.9507,NAN,,NAN,,0,72,72,72,1,73,Sam,Rej,Participant_Images/615a084387075364a7462335/615a084387075364a7462335_Images/615a084387075364a7462335_Image_20.jpeg,did not like,2.071164779,,,,,,,,,,,,,,
,,,,,,,space,2.7717,NAN,,NAN,,0,73,73,73,1,74,Sam,Rej,Participant_Images/615a084387075364a7462335/615a084387075364a7462335_Images/615a084387075364a7462335_Image_19.jpeg,did not like,5.336503566,,,,,,,,,,,,,,
,,,,,,,,,,,,,,,,,,,,,,,,c,0,2.7919,,space,1.8556,0,0,0,0,1,,,
,,,,,,,,,NAN,,NAN,,0,74,74,74,1,75,Sam,Rej,Participant_Images/615a084387075364a7462335/615a084387075364a7462335_Images/615a084387075364a7462335_Image_18.jpeg,did not like,2.642157193,,,,,,,,,,,,,,
,,,,,,,space,4.6185,NAN,,NAN,,0,75,75,75,1,76,Sam,Rej,Participant_Images/615a084387075364a7462335/615a084387075364a7462335_Images/615a084387075364a7462335_Image_13.jpeg,did not like,4.456234322,,,,,,,,,,,,,,
,,,,,,,space,8.0515,NAN,,NAN,,0,76,76,76,1,77,Sam,Rej,Participant_Images/615a084387075364a7462335/615a084387075364a7462335_Images/615a084387075364a7462335_Image_22.jpeg,did not like,4.438512181,,,,,,,,,,,,,,
,,,,,,,space,1.3097,NAN,,NAN,,0,77,77,77,1,78,Sam,Rej,Participant_Images/615a084387075364a7462335/615a084387075364a7462335_Images/615a084387075364a7462335_Image_17.jpeg,did not like,2.682944783,,,,,,,,,,,,,,
,,,,,,,space,3.5298,NAN,,NAN,,0,78,78,78,1,79,Sam,Rej,Participant_Images/615a084387075364a7462335/615a084387075364a7462335_Images/615a084387075364a7462335_Image_5.jpeg,liked,4.51984296,,,,,,,,,,,,,,
,,,,,,,,,,,,,,,,,,,,,,,,c,0,1.4135,,space,8.4606,0,0,0,0,1,,,
,,,,,,,,,NAN,,NAN,,0,79,79,79,1,80,Sam,Rej,Participant_Images/615a084387075364a7462335/615a084387075364a7462335_Images/615a084387075364a7462335_Image_24.jpeg,liked,3.195382774,,,,,,,,,,,,,,
,,,,,,,space,1.2168,NAN,,NAN,,0,80,80,80,1,81,Sam,Rej,Participant_Images/615a084387075364a7462335/615a084387075364a7462335_Images/615a084387075364a7462335_Image_28.jpeg,liked,1.779333479,,,,,,,,,,,,,,
,,,,,,,space,2.7817,NAN,,NAN,,0,81,81,81,1,82,Sam,Rej,Participant_Images/615a084387075364a7462335/615a084387075364a7462335_Images/615a084387075364a7462335_Image_25.jpeg,did not like,4.312468682,,,,,,,,,,,,,,
,,,,,,,space,1.7967,NAN,,NAN,,0,82,82,82,1,83,Sam,Rej,Participant_Images/615a084387075364a7462335/615a084387075364a7462335_Images/615a084387075364a7462335_Image_9.jpeg,did not like,4.940433059,,,,,,,,,,,,,,
,,,,,,,space,0.9964,NAN,,NAN,,0,83,83,83,1,84,Sam,Rej,Participant_Images/615a084387075364a7462335/615a084387075364a7462335_Images/615a084387075364a7462335_Image_14.jpeg,liked,2.7105123,,,,,,,,,,,,,,
,,,,,,,,,,,,,,,,,,,,,,,,c,0,2.8331,,space,1.6994,0,0,0,0,1,,,
,,,,,,,,,NAN,,NAN,,0,84,84,84,1,85,Sam,Rej,Participant_Images/615a084387075364a7462335/615a084387075364a7462335_Images/615a084387075364a7462335_Image_1.jpeg,did not like,3.602308302,,,,,,,,,,,,,,
,,,,,,,space,0.5158,NAN,,NAN,,0,85,85,85,1,86,Sam,Rej,Participant_Images/615a084387075364a7462335/615a084387075364a7462335_Images/615a084387075364a7462335_Image_26.jpeg,liked,4.106391878,,,,,,,,,,,,,,
,,,,,,,space,0.7148,NAN,,NAN,,0,86,86,86,1,87,Sam,Rej,Participant_Images/615a084387075364a7462335/615a084387075364a7462335_Images/615a084387075364a7462335_Image_6.jpeg,did not like,3.799433026,,,,,,,,,,,,,,
,,,,,,,space,2.9729,NAN,,NAN,,0,87,87,87,1,88,Sam,Rej,Participant_Images/615a084387075364a7462335/615a084387075364a7462335_Images/615a084387075364a7462335_Image_10.jpeg,did not like,5.246980764,,,,,,,,,,,,,,
,,,,,,,space,1.0405,NAN,,NAN,,0,88,88,88,1,89,Sam,Rej,Participant_Images/615a084387075364a7462335/615a084387075364a7462335_Images/615a084387075364a7462335_Image_2.jpeg,did not like,3.30081769,,,,,,,,,,,,,,
,,,,,,,,,,,,,,,,,,,,,,,,c,0,2.1982,,space,1.6673,0,0,0,0,1,,,
,,,,,,,,,1,,2,,0,89,89,89,1,90,Sam,Rej,Participant_Images/615a084387075364a7462335/615a084387075364a7462335_Images/615a084387075364a7462335_Image_29.jpeg,did not like,1.661473164,,,,,,,,,,,,,,
,,,,,space,2.1027,space,1.2004,NAN,,NAN,,0,90,90,90,1,91,Alex,Neutral,Participant_Images/615a084387075364a7462335/615a084387075364a7462335_Images/615a084387075364a7462335_Image_2.jpeg,did not like,3.613205605,,,,,,,,,,,,,,
,,,,,,,space,1.8283,NAN,,NAN,,0,91,91,91,1,92,Alex,Neutral,Participant_Images/615a084387075364a7462335/615a084387075364a7462335_Images/615a084387075364a7462335_Image_25.jpeg,liked,4.988446431,,,,,,,,,,,,,,
,,,,,,,space,0.7054,NAN,,NAN,,0,92,92,92,1,93,Alex,Neutral,Participant_Images/615a084387075364a7462335/615a084387075364a7462335_Images/615a084387075364a7462335_Image_30.jpeg,did not like,3.470791822,,,,,,,,,,,,,,
,,,,,,,space,2.4166,NAN,,NAN,,0,93,93,93,1,94,Alex,Neutral,Participant_Images/615a084387075364a7462335/615a084387075364a7462335_Images/615a084387075364a7462335_Image_12.jpeg,liked,3.820572462,,,,,,,,,,,,,,
,,,,,,,,,,,,,,,,,,,,,,,,c,0,1.4465,,space,0.5142,0,0,0,0,1,,,
,,,,,,,,,NAN,,NAN,,0,94,94,94,1,95,Alex,Neutral,Participant_Images/615a084387075364a7462335/615a084387075364a7462335_Images/615a084387075364a7462335_Image_10.jpeg,did not like,2.455989137,,,,,,,,,,,,,,
,,,,,,,space,0.7165,NAN,,NAN,,0,95,95,95,1,96,Alex,Neutral,Participant_Images/615a084387075364a7462335/615a084387075364a7462335_Images/615a084387075364a7462335_Image_19.jpeg,did not like,3.79605092,,,,,,,,,,,,,,
,,,,,,,space,1.0591,NAN,,NAN,,0,96,96,96,1,97,Alex,Neutral,Participant_Images/615a084387075364a7462335/615a084387075364a7462335_Images/615a084387075364a7462335_Image_4.jpeg,liked,3.562416326,,,,,,,,,,,,,,
,,,,,,,space,1.2061,NAN,,NAN,,0,97,97,97,1,98,Alex,Neutral,Participant_Images/615a084387075364a7462335/615a084387075364a7462335_Images/615a084387075364a7462335_Image_29.jpeg,liked,2.843822497,,,,,,,,,,,,,,
,,,,,,,space,0.9517,NAN,,NAN,,0,98,98,98,1,99,Alex,Neutral,Participant_Images/615a084387075364a7462335/615a084387075364a7462335_Images/615a084387075364a7462335_Image_1.jpeg,liked,3.546495948,,,,,,,,,,,,,,
,,,,,,,,,,,,,,,,,,,,,,,,c,0,1.4782,,space,0.5114,0,0,0,0,1,,,
,,,,,,,,,NAN,,NAN,,0,99,99,99,1,100,Alex,Neutral,Participant_Images/615a084387075364a7462335/615a084387075364a7462335_Images/615a084387075364a7462335_Image_18.jpeg,liked,1.672012706,,,,,,,,,,,,,,
,,,,,,,space,1.7278,NAN,,NAN,,0,100,100,100,1,101,Alex,Neutral,Participant_Images/615a084387075364a7462335/615a084387075364a7462335_Images/615a084387075364a7462335_Image_17.jpeg,did not like,4.942172136,,,,,,,,,,,,,,
,,,,,,,space,0.6534,NAN,,NAN,,0,101,101,101,1,102,Alex,Neutral,Participant_Images/615a084387075364a7462335/615a084387075364a7462335_Images/615a084387075364a7462335_Image_23.jpeg,did not like,2.50187214,,,,,,,,,,,,,,
,,,,,,,space,0.5498,NAN,,NAN,,0,102,102,102,1,103,Alex,Neutral,Participant_Images/615a084387075364a7462335/615a084387075364a7462335_Images/615a084387075364a7462335_Image_13.jpeg,liked,2.071164779,,,,,,,,,,,,,,
,,,,,,,space,0.5496,NAN,,NAN,,0,103,103,103,1,104,Alex,Neutral,Participant_Images/615a084387075364a7462335/615a084387075364a7462335_Images/615a084387075364a7462335_Image_24.jpeg,liked,5.336503566,,,,,,,,,,,,,,
,,,,,,,,,,,,,,,,,,,,,,,,c,0,1.6653,,space,0.5432,0,0,0,0,1,,,
,,,,,,,,,NAN,,NAN,,0,104,104,104,1,105,Alex,Neutral,Participant_Images/615a084387075364a7462335/615a084387075364a7462335_Images/615a084387075364a7462335_Image_9.jpeg,did not like,2.642157193,,,,,,,,,,,,,,
,,,,,,,space,0.4371,NAN,,NAN,,0,105,105,105,1,106,Alex,Neutral,Participant_Images/615a084387075364a7462335/615a084387075364a7462335_Images/615a084387075364a7462335_Image_15.jpeg,did not like,4.456234322,,,,,,,,,,,,,,
,,,,,,,space,0.5072,NAN,,NAN,,0,106,106,106,1,107,Alex,Neutral,Participant_Images/615a084387075364a7462335/615a084387075364a7462335_Images/615a084387075364a7462335_Image_8.jpeg,liked,4.438512181,,,,,,,,,,,,,,
,,,,,,,space,0.737,NAN,,NAN,,0,107,107,107,1,108,Alex,Neutral,Participant_Images/615a084387075364a7462335/615a084387075364a7462335_Images/615a084387075364a7462335_Image_26.jpeg,did not like,2.682944783,,,,,,,,,,,,,,
,,,,,,,space,0.7592,NAN,,NAN,,0,108,108,108,1,109,Alex,Neutral,Participant_Images/615a084387075364a7462335/615a084387075364a7462335_Images/615a084387075364a7462335_Image_27.jpeg,liked,4.51984296,,,,,,,,,,,,,,
,,,,,,,,,,,,,,,,,,,,,,,,c,0,1.627,,space,0.5779,0,0,0,0,1,,,
,,,,,,,,,NAN,,NAN,,0,109,109,109,1,110,Alex,Neutral,Participant_Images/615a084387075364a7462335/615a084387075364a7462335_Images/615a084387075364a7462335_Image_21.jpeg,did not like,3.195382774,,,,,,,,,,,,,,
,,,,,,,space,0.5258,NAN,,NAN,,0,110,110,110,1,111,Alex,Neutral,Participant_Images/615a084387075364a7462335/615a084387075364a7462335_Images/615a084387075364a7462335_Image_28.jpeg,did not like,1.779333479,,,,,,,,,,,,,,
,,,,,,,space,0.5052,NAN,,NAN,,0,111,111,111,1,112,Alex,Neutral,Participant_Images/615a084387075364a7462335/615a084387075364a7462335_Images/615a084387075364a7462335_Image_11.jpeg,liked,4.312468682,,,,,,,,,,,,,,
,,,,,,,space,0.7512,NAN,,NAN,,0,112,112,112,1,113,Alex,Neutral,Participant_Images/615a084387075364a7462335/615a084387075364a7462335_Images/615a084387075364a7462335_Image_20.jpeg,liked,4.940433059,,,,,,,,,,,,,,
,,,,,,,space,0.5407,NAN,,NAN,,0,113,113,113,1,114,Alex,Neutral,Participant_Images/615a084387075364a7462335/615a084387075364a7462335_Images/615a084387075364a7462335_Image_14.jpeg,did not like,2.7105123,,,,,,,,,,,,,,
,,,,,,,,,,,,,,,,,,,,,,,,c,0,1.6302,,space,0.845,0,0,0,0,1,,,
,,,,,,,,,NAN,,NAN,,0,114,114,114,1,115,Alex,Neutral,Participant_Images/615a084387075364a7462335/615a084387075364a7462335_Images/615a084387075364a7462335_Image_5.jpeg,liked,3.602308302,,,,,,,,,,,,,,
,,,,,,,space,0.8585,NAN,,NAN,,0,115,115,115,1,116,Alex,Neutral,Participant_Images/615a084387075364a7462335/615a084387075364a7462335_Images/615a084387075364a7462335_Image_22.jpeg,did not like,4.106391878,,,,,,,,,,,,,,
,,,,,,,space,0.4945,NAN,,NAN,,0,116,116,116,1,117,Alex,Neutral,Participant_Images/615a084387075364a7462335/615a084387075364a7462335_Images/615a084387075364a7462335_Image_3.jpeg,liked,3.799433026,,,,,,,,,,,,,,
,,,,,,,space,2.0072,NAN,,NAN,,0,117,117,117,1,118,Alex,Neutral,Participant_Images/615a084387075364a7462335/615a084387075364a7462335_Images/615a084387075364a7462335_Image_6.jpeg,did not like,5.246980764,,,,,,,,,,,,,,
,,,,,,,space,0.6228,NAN,,NAN,,0,118,118,118,1,119,Alex,Neutral,Participant_Images/615a084387075364a7462335/615a084387075364a7462335_Images/615a084387075364a7462335_Image_16.jpeg,liked,3.30081769,,,,,,,,,,,,,,
,,,,,,,,,,,,,,,,,,,,,,,,c,0,1.3797,,space,0.7336,0,0,0,0,1,,,
,,,,,,,,,1,,2,,0,119,119,119,1,120,Alex,Neutral,Participant_Images/615a084387075364a7462335/615a084387075364a7462335_Images/615a084387075364a7462335_Image_7.jpeg,did not like,1.661473164,,,,,,,,,,,,,,
,,,,,space,1.435,space,0.7637,NAN,,NAN,,0,120,120,120,1,121,Charlie,Rej,Participant_Images/615a084387075364a7462335/615a084387075364a7462335_Images/615a084387075364a7462335_Image_14.jpeg,liked,3.613205605,,,,,,,,,,,,,,
,,,,,,,space,0.5174,NAN,,NAN,,0,121,121,121,1,122,Charlie,Rej,Participant_Images/615a084387075364a7462335/615a084387075364a7462335_Images/615a084387075364a7462335_Image_15.jpeg,liked,4.988446431,,,,,,,,,,,,,,
,,,,,,,space,0.574,NAN,,NAN,,0,122,122,122,1,123,Charlie,Rej,Participant_Images/615a084387075364a7462335/615a084387075364a7462335_Images/615a084387075364a7462335_Image_20.jpeg,did not like,3.470791822,,,,,,,,,,,,,,
,,,,,,,space,0.4055,NAN,,NAN,,0,123,123,123,1,124,Charlie,Rej,Participant_Images/615a084387075364a7462335/615a084387075364a7462335_Images/615a084387075364a7462335_Image_9.jpeg,did not like,3.820572462,,,,,,,,,,,,,,
,,,,,,,,,,,,,,,,,,,,,,,,c,0,1.5676,,space,0.6786,0,0,0,0,1,,,
,,,,,,,,,NAN,,NAN,,0,124,124,124,1,125,Charlie,Rej,Participant_Images/615a084387075364a7462335/615a084387075364a7462335_Images/615a084387075364a7462335_Image_22.jpeg,did not like,2.455989137,,,,,,,,,,,,,,
,,,,,,,space,0.4854,NAN,,NAN,,0,125,125,125,1,126,Charlie,Rej,Participant_Images/615a084387075364a7462335/615a084387075364a7462335_Images/615a084387075364a7462335_Image_17.jpeg,liked,3.79605092,,,,,,,,,,,,,,
,,,,,,,space,1.9939,NAN,,NAN,,0,126,126,126,1,127,Charlie,Rej,Participant_Images/615a084387075364a7462335/615a084387075364a7462335_Images/615a084387075364a7462335_Image_26.jpeg,did not like,3.562416326,,,,,,,,,,,,,,
,,,,,,,space,1.977,NAN,,NAN,,0,127,127,127,1,128,Charlie,Rej,Participant_Images/615a084387075364a7462335/615a084387075364a7462335_Images/615a084387075364a7462335_Image_2.jpeg,did not like,2.843822497,,,,,,,,,,,,,,
,,,,,,,space,2.2782,NAN,,NAN,,0,128,128,128,1,129,Charlie,Rej,Participant_Images/615a084387075364a7462335/615a084387075364a7462335_Images/615a084387075364a7462335_Image_16.jpeg,liked,3.546495948,,,,,,,,,,,,,,
,,,,,,,,,,,,,,,,,,,,,,,,c,0,3.2917,,space,6.6725,0,0,0,0,1,,,
,,,,,,,,,NAN,,NAN,,0,129,129,129,1,130,Charlie,Rej,Participant_Images/615a084387075364a7462335/615a084387075364a7462335_Images/615a084387075364a7462335_Image_4.jpeg,did not like,1.672012706,,,,,,,,,,,,,,
,,,,,,,space,0.9394,NAN,,NAN,,0,130,130,130,1,131,Charlie,Rej,Participant_Images/615a084387075364a7462335/615a084387075364a7462335_Images/615a084387075364a7462335_Image_12.jpeg,did not like,4.942172136,,,,,,,,,,,,,,
,,,,,,,space,1.0173,NAN,,NAN,,0,131,131,131,1,132,Charlie,Rej,Participant_Images/615a084387075364a7462335/615a084387075364a7462335_Images/615a084387075364a7462335_Image_6.jpeg,liked,2.50187214,,,,,,,,,,,,,,
,,,,,,,space,4.1176,NAN,,NAN,,0,132,132,132,1,133,Charlie,Rej,Participant_Images/615a084387075364a7462335/615a084387075364a7462335_Images/615a084387075364a7462335_Image_7.jpeg,liked,2.071164779,,,,,,,,,,,,,,
,,,,,,,space,16.6045,NAN,,NAN,,0,133,133,133,1,134,Charlie,Rej,Participant_Images/615a084387075364a7462335/615a084387075364a7462335_Images/615a084387075364a7462335_Image_11.jpeg,did not like,5.336503566,,,,,,,,,,,,,,
,,,,,,,,,,,,,,,,,,,,,,,,c,0,1.5001,,space,4.2115,0,0,0,0,1,,,
,,,,,,,,,NAN,,NAN,,0,134,134,134,1,135,Charlie,Rej,Participant_Images/615a084387075364a7462335/615a084387075364a7462335_Images/615a084387075364a7462335_Image_28.jpeg,did not like,2.642157193,,,,,,,,,,,,,,
,,,,,,,space,2.0361,NAN,,NAN,,0,135,135,135,1,136,Charlie,Rej,Participant_Images/615a084387075364a7462335/615a084387075364a7462335_Images/615a084387075364a7462335_Image_25.jpeg,liked,4.456234322,,,,,,,,,,,,,,
,,,,,,,space,3.1408,NAN,,NAN,,0,136,136,136,1,137,Charlie,Rej,Participant_Images/615a084387075364a7462335/615a084387075364a7462335_Images/615a084387075364a7462335_Image_3.jpeg,did not like,4.438512181,,,,,,,,,,,,,,
,,,,,,,space,3.8482,NAN,,NAN,,0,137,137,137,1,138,Charlie,Rej,Participant_Images/615a084387075364a7462335/615a084387075364a7462335_Images/615a084387075364a7462335_Image_1.jpeg,did not like,2.682944783,,,,,,,,,,,,,,
,,,,,,,space,1.4174,NAN,,NAN,,0,138,138,138,1,139,Charlie,Rej,Participant_Images/615a084387075364a7462335/615a084387075364a7462335_Images/615a084387075364a7462335_Image_5.jpeg,liked,4.51984296,,,,,,,,,,,,,,
,,,,,,,,,,,,,,,,,,,,,,,,,999,,,space,2.7711,0,0,0,0,1,,,
,,,,,,,,,NAN,,NAN,,0,139,139,139,1,140,Charlie,Rej,Participant_Images/615a084387075364a7462335/615a084387075364a7462335_Images/615a084387075364a7462335_Image_27.jpeg,did not like,3.195382774,,,,,,,,,,,,,,
,,,,,,,space,1.7185,NAN,,NAN,,0,140,140,140,1,141,Charlie,Rej,Participant_Images/615a084387075364a7462335/615a084387075364a7462335_Images/615a084387075364a7462335_Image_24.jpeg,did not like,1.779333479,,,,,,,,,,,,,,
,,,,,,,space,2.5732,NAN,,NAN,,0,141,141,141,1,142,Charlie,Rej,Participant_Images/615a084387075364a7462335/615a084387075364a7462335_Images/615a084387075364a7462335_Image_13.jpeg,did not like,4.312468682,,,,,,,,,,,,,,
,,,,,,,space,6.2817,NAN,,NAN,,0,142,142,142,1,143,Charlie,Rej,Participant_Images/615a084387075364a7462335/615a084387075364a7462335_Images/615a084387075364a7462335_Image_30.jpeg,liked,4.940433059,,,,,,,,,,,,,,
,,,,,,,space,6.2371,NAN,,NAN,,0,143,143,143,1,144,Charlie,Rej,Participant_Images/615a084387075364a7462335/615a084387075364a7462335_Images/615a084387075364a7462335_Image_19.jpeg,did not like,2.7105123,,,,,,,,,,,,,,
,,,,,,,,,,,,,,,,,,,,,,,,c,0,1.2723,,space,5.7428,0,0,0,0,1,,,
,,,,,,,,,NAN,,NAN,,0,144,144,144,1,145,Charlie,Rej,Participant_Images/615a084387075364a7462335/615a084387075364a7462335_Images/615a084387075364a7462335_Image_18.jpeg,did not like,3.602308302,,,,,,,,,,,,,,
,,,,,,,space,1.4619,NAN,,NAN,,0,145,145,145,1,146,Charlie,Rej,Participant_Images/615a084387075364a7462335/615a084387075364a7462335_Images/615a084387075364a7462335_Image_10.jpeg,did not like,4.106391878,,,,,,,,,,,,,,
,,,,,,,space,3.3697,NAN,,NAN,,0,146,146,146,1,147,Charlie,Rej,Participant_Images/615a084387075364a7462335/615a084387075364a7462335_Images/615a084387075364a7462335_Image_21.jpeg,did not like,3.799433026,,,,,,,,,,,,,,
,,,,,,,space,0.673,NAN,,NAN,,0,147,147,147,1,148,Charlie,Rej,Participant_Images/615a084387075364a7462335/615a084387075364a7462335_Images/615a084387075364a7462335_Image_8.jpeg,did not like,5.246980764,,,,,,,,,,,,,,
,,,,,,,space,6.3106,NAN,,NAN,,0,148,148,148,1,149,Charlie,Rej,Participant_Images/615a084387075364a7462335/615a084387075364a7462335_Images/615a084387075364a7462335_Image_29.jpeg,did not like,3.30081769,,,,,,,,,,,,,,
,,,,,,,,,,,,,,,,,,,,,,,,c,0,1.3466,,space,0.4456,0,0,0,0,1,,,
,,,,,,,,,2,,3,,0,149,149,149,1,150,Charlie,Rej,Participant_Images/615a084387075364a7462335/615a084387075364a7462335_Images/615a084387075364a7462335_Image_23.jpeg,did not like,1.661473164,,,,,,,,,,,,,,
,,,,,,,,,,,,,,,,,,,,,,,,,,,,,,,,,,,,space,2.4021
