endwelcomescreen_keys.keys,endwelcomescreen_keys.rt,endinstructionscreen_keys.keys,endinstructionscreen_keys.rt,endpartnermatch_keys.keys,endpartnermatch_keys.rt,sharenextphoto_key.keys,sharenextphoto_key.rt,salience_rating,key_resp.keys,stress_level,stresslevel_keypress.keys,entiretaskloop.thisRepN,entiretaskloop.thisTrialN,entiretaskloop.thisN,entiretaskloop.thisIndex,entiretaskloop.ran,TrialNumber,Partner,Condition,Photos,Feedback,FeedbackWait,choice_keys.keys,playlottery,resumeafterlottery_keys.keys,resumeafterlottery_keys.rt,lotteryloop.thisRepN,lotteryloop.thisTrialN,lotteryloop.thisN,lotteryloop.thisIndex,lotteryloop.ran,choice_keys.rt,lotteryguess_keys.keys,lotteryguess_keys.rt,end_screen_keys.keys,end_screen_keys.rt
space,8.9589,,,,,,,,,,,,,,,,,,,,,,,,,,,,,,,,,,,
,,,,,,,,,,,,,,,,,,,,,,,,,,,,,,,,,,,,
,,space,10.3346,,,,,,,,,,,,,,,,,,,,,,,,,,,,,,,,,
,,,,space,3.9192,space,3.165,NAN,,NAN,,0,0,0,0,1,1,Alex,Acc,Participant_Images/630386f64c5bbd56ab1c3b0f/630386f64c5bbd56ab1c3b0f_Images/630386f64c5bbd56ab1c3b0f_Image_4.jpeg,did not like,3.613205605,,,,,,,,,,,,,,
,,,,,,space,1.1291,NAN,,NAN,,0,1,1,1,1,2,Alex,Acc,Participant_Images/630386f64c5bbd56ab1c3b0f/630386f64c5bbd56ab1c3b0f_Images/630386f64c5bbd56ab1c3b0f_Image_25.jpeg,did not like,4.988446431,,,,,,,,,,,,,,
,,,,,,space,1.4997,NAN,,NAN,,0,2,2,2,1,3,Alex,Acc,Participant_Images/630386f64c5bbd56ab1c3b0f/630386f64c5bbd56ab1c3b0f_Images/630386f64c5bbd56ab1c3b0f_Image_5.jpeg,did not like,3.470791822,,,,,,,,,,,,,,
,,,,,,space,4.2323,NAN,,NAN,,0,3,3,3,1,4,Alex,Acc,Participant_Images/630386f64c5bbd56ab1c3b0f/630386f64c5bbd56ab1c3b0f_Images/630386f64c5bbd56ab1c3b0f_Image_11.jpeg,did not like,3.820572462,,,,,,,,,,,,,,
,,,,,,,,,,,,,,,,,,,,,,,,999,space,1.9843,0,0,0,0,1,,,,,
,,,,,,,,NAN,,NAN,,0,4,4,4,1,5,Alex,Acc,Participant_Images/630386f64c5bbd56ab1c3b0f/630386f64c5bbd56ab1c3b0f_Images/630386f64c5bbd56ab1c3b0f_Image_6.jpeg,did not like,2.455989137,,,,,,,,,,,,,,
,,,,,,space,4.1359,NAN,,NAN,,0,5,5,5,1,6,Alex,Acc,Participant_Images/630386f64c5bbd56ab1c3b0f/630386f64c5bbd56ab1c3b0f_Images/630386f64c5bbd56ab1c3b0f_Image_27.jpeg,liked,3.79605092,,,,,,,,,,,,,,
,,,,,,space,2.3794,NAN,,NAN,,0,6,6,6,1,7,Alex,Acc,Participant_Images/630386f64c5bbd56ab1c3b0f/630386f64c5bbd56ab1c3b0f_Images/630386f64c5bbd56ab1c3b0f_Image_3.jpeg,did not like,3.562416326,,,,,,,,,,,,,,
,,,,,,space,0.5075,NAN,,NAN,,0,7,7,7,1,8,Alex,Acc,Participant_Images/630386f64c5bbd56ab1c3b0f/630386f64c5bbd56ab1c3b0f_Images/630386f64c5bbd56ab1c3b0f_Image_20.jpeg,liked,2.843822497,,,,,,,,,,,,,,
,,,,,,space,2.0292,NAN,,NAN,,0,8,8,8,1,9,Alex,Acc,Participant_Images/630386f64c5bbd56ab1c3b0f/630386f64c5bbd56ab1c3b0f_Images/630386f64c5bbd56ab1c3b0f_Image_24.jpeg,liked,3.546495948,,,,,,,,,,,,,,
,,,,,,,,,,,,,,,,,,,,,,,s,1,space,0.6481,0,0,0,0,1,2.943,h,2.8601,,
,,,,,,,,NAN,,NAN,,0,9,9,9,1,10,Alex,Acc,Participant_Images/630386f64c5bbd56ab1c3b0f/630386f64c5bbd56ab1c3b0f_Images/630386f64c5bbd56ab1c3b0f_Image_15.jpeg,did not like,1.672012706,,,,,,,,,,,,,,
,,,,,,space,2.3567,NAN,,NAN,,0,10,10,10,1,11,Alex,Acc,Participant_Images/630386f64c5bbd56ab1c3b0f/630386f64c5bbd56ab1c3b0f_Images/630386f64c5bbd56ab1c3b0f_Image_18.jpeg,liked,4.942172136,,,,,,,,,,,,,,
,,,,,,space,1.1059,NAN,,NAN,,0,11,11,11,1,12,Alex,Acc,Participant_Images/630386f64c5bbd56ab1c3b0f/630386f64c5bbd56ab1c3b0f_Images/630386f64c5bbd56ab1c3b0f_Image_29.jpeg,liked,2.50187214,,,,,,,,,,,,,,
,,,,,,space,0.8209,NAN,,NAN,,0,12,12,12,1,13,Alex,Acc,Participant_Images/630386f64c5bbd56ab1c3b0f/630386f64c5bbd56ab1c3b0f_Images/630386f64c5bbd56ab1c3b0f_Image_19.jpeg,liked,2.071164779,,,,,,,,,,,,,,
,,,,,,space,0.8708,NAN,,NAN,,0,13,13,13,1,14,Alex,Acc,Participant_Images/630386f64c5bbd56ab1c3b0f/630386f64c5bbd56ab1c3b0f_Images/630386f64c5bbd56ab1c3b0f_Image_7.jpeg,liked,5.336503566,,,,,,,,,,,,,,
,,,,,,,,,,,,,,,,,,,,,,,s,1,space,0.5203,0,0,0,0,1,1.7069,h,2.0887,,
,,,,,,,,NAN,,NAN,,0,14,14,14,1,15,Alex,Acc,Participant_Images/630386f64c5bbd56ab1c3b0f/630386f64c5bbd56ab1c3b0f_Images/630386f64c5bbd56ab1c3b0f_Image_26.jpeg,liked,2.642157193,,,,,,,,,,,,,,
,,,,,,space,0.053,NAN,,NAN,,0,15,15,15,1,16,Alex,Acc,Participant_Images/630386f64c5bbd56ab1c3b0f/630386f64c5bbd56ab1c3b0f_Images/630386f64c5bbd56ab1c3b0f_Image_10.jpeg,liked,4.456234322,,,,,,,,,,,,,,
,,,,,,space,0.0917,NAN,,NAN,,0,16,16,16,1,17,Alex,Acc,Participant_Images/630386f64c5bbd56ab1c3b0f/630386f64c5bbd56ab1c3b0f_Images/630386f64c5bbd56ab1c3b0f_Image_8.jpeg,did not like,4.438512181,,,,,,,,,,,,,,
,,,,,,space,0.8531,NAN,,NAN,,0,17,17,17,1,18,Alex,Acc,Participant_Images/630386f64c5bbd56ab1c3b0f/630386f64c5bbd56ab1c3b0f_Images/630386f64c5bbd56ab1c3b0f_Image_1.jpeg,liked,2.682944783,,,,,,,,,,,,,,
,,,,,,space,2.0295,NAN,,NAN,,0,18,18,18,1,19,Alex,Acc,Participant_Images/630386f64c5bbd56ab1c3b0f/630386f64c5bbd56ab1c3b0f_Images/630386f64c5bbd56ab1c3b0f_Image_16.jpeg,liked,4.51984296,,,,,,,,,,,,,,
,,,,,,,,,,,,,,,,,,,,,,,s,1,space,1.1707,0,0,0,0,1,2.4598,h,1.515,,
,,,,,,,,NAN,,NAN,,0,19,19,19,1,20,Alex,Acc,Participant_Images/630386f64c5bbd56ab1c3b0f/630386f64c5bbd56ab1c3b0f_Images/630386f64c5bbd56ab1c3b0f_Image_9.jpeg,liked,3.195382774,,,,,,,,,,,,,,
,,,,,,space,0.4698,NAN,,NAN,,0,20,20,20,1,21,Alex,Acc,Participant_Images/630386f64c5bbd56ab1c3b0f/630386f64c5bbd56ab1c3b0f_Images/630386f64c5bbd56ab1c3b0f_Image_17.jpeg,liked,1.779333479,,,,,,,,,,,,,,
,,,,,,space,0.6036,NAN,,NAN,,0,21,21,21,1,22,Alex,Acc,Participant_Images/630386f64c5bbd56ab1c3b0f/630386f64c5bbd56ab1c3b0f_Images/630386f64c5bbd56ab1c3b0f_Image_28.jpeg,liked,4.312468682,,,,,,,,,,,,,,
,,,,,,space,0.5917,NAN,,NAN,,0,22,22,22,1,23,Alex,Acc,Participant_Images/630386f64c5bbd56ab1c3b0f/630386f64c5bbd56ab1c3b0f_Images/630386f64c5bbd56ab1c3b0f_Image_13.jpeg,did not like,4.940433059,,,,,,,,,,,,,,
,,,,,,space,0.88,NAN,,NAN,,0,23,23,23,1,24,Alex,Acc,Participant_Images/630386f64c5bbd56ab1c3b0f/630386f64c5bbd56ab1c3b0f_Images/630386f64c5bbd56ab1c3b0f_Image_2.jpeg,liked,2.7105123,,,,,,,,,,,,,,
,,,,,,,,,,,,,,,,,,,,,,,s,1,space,1.2032,0,0,0,0,1,1.8568,h,1.2414,,
,,,,,,,,NAN,,NAN,,0,24,24,24,1,25,Alex,Acc,Participant_Images/630386f64c5bbd56ab1c3b0f/630386f64c5bbd56ab1c3b0f_Images/630386f64c5bbd56ab1c3b0f_Image_22.jpeg,liked,3.602308302,,,,,,,,,,,,,,
,,,,,,space,2.3236,NAN,,NAN,,0,25,25,25,1,26,Alex,Acc,Participant_Images/630386f64c5bbd56ab1c3b0f/630386f64c5bbd56ab1c3b0f_Images/630386f64c5bbd56ab1c3b0f_Image_23.jpeg,liked,4.106391878,,,,,,,,,,,,,,
,,,,,,space,3.6011,NAN,,NAN,,0,26,26,26,1,27,Alex,Acc,Participant_Images/630386f64c5bbd56ab1c3b0f/630386f64c5bbd56ab1c3b0f_Images/630386f64c5bbd56ab1c3b0f_Image_14.jpeg,liked,3.799433026,,,,,,,,,,,,,,
,,,,,,space,1.8069,NAN,,NAN,,0,27,27,27,1,28,Alex,Acc,Participant_Images/630386f64c5bbd56ab1c3b0f/630386f64c5bbd56ab1c3b0f_Images/630386f64c5bbd56ab1c3b0f_Image_30.jpeg,liked,5.246980764,,,,,,,,,,,,,,
,,,,,,space,1.0433,NAN,,NAN,,0,28,28,28,1,29,Alex,Acc,Participant_Images/630386f64c5bbd56ab1c3b0f/630386f64c5bbd56ab1c3b0f_Images/630386f64c5bbd56ab1c3b0f_Image_12.jpeg,liked,3.30081769,,,,,,,,,,,,,,
,,,,,,,,,,,,,,,,,,,,,,,s,1,space,0.659,0,0,0,0,1,1.2413,h,0.7932,,
,,,,,,,,3,,7,,0,29,29,29,1,30,Alex,Acc,Participant_Images/630386f64c5bbd56ab1c3b0f/630386f64c5bbd56ab1c3b0f_Images/630386f64c5bbd56ab1c3b0f_Image_21.jpeg,liked,1.661473164,,,,,,,,,,,,,,
,,,,space,1.6489,space,0.7088,NAN,,NAN,,0,30,30,30,1,31,Riley,Acc,Participant_Images/630386f64c5bbd56ab1c3b0f/630386f64c5bbd56ab1c3b0f_Images/630386f64c5bbd56ab1c3b0f_Image_2.jpeg,liked,3.613205605,,,,,,,,,,,,,,
,,,,,,space,2.5071,NAN,,NAN,,0,31,31,31,1,32,Riley,Acc,Participant_Images/630386f64c5bbd56ab1c3b0f/630386f64c5bbd56ab1c3b0f_Images/630386f64c5bbd56ab1c3b0f_Image_26.jpeg,liked,4.988446431,,,,,,,,,,,,,,
,,,,,,space,0.7728,NAN,,NAN,,0,32,32,32,1,33,Riley,Acc,Participant_Images/630386f64c5bbd56ab1c3b0f/630386f64c5bbd56ab1c3b0f_Images/630386f64c5bbd56ab1c3b0f_Image_9.jpeg,liked,3.470791822,,,,,,,,,,,,,,
,,,,,,space,2.2228,NAN,,NAN,,0,33,33,33,1,34,Riley,Acc,Participant_Images/630386f64c5bbd56ab1c3b0f/630386f64c5bbd56ab1c3b0f_Images/630386f64c5bbd56ab1c3b0f_Image_29.jpeg,liked,3.820572462,,,,,,,,,,,,,,
,,,,,,,,,,,,,,,,,,,,,,,s,1,space,1.1209,0,0,0,0,1,1.3703,h,0.5522,,
,,,,,,,,NAN,,NAN,,0,34,34,34,1,35,Riley,Acc,Participant_Images/630386f64c5bbd56ab1c3b0f/630386f64c5bbd56ab1c3b0f_Images/630386f64c5bbd56ab1c3b0f_Image_24.jpeg,liked,2.455989137,,,,,,,,,,,,,,
,,,,,,space,0.8759,NAN,,NAN,,0,35,35,35,1,36,Riley,Acc,Participant_Images/630386f64c5bbd56ab1c3b0f/630386f64c5bbd56ab1c3b0f_Images/630386f64c5bbd56ab1c3b0f_Image_23.jpeg,liked,3.79605092,,,,,,,,,,,,,,
,,,,,,space,2.0614,NAN,,NAN,,0,36,36,36,1,37,Riley,Acc,Participant_Images/630386f64c5bbd56ab1c3b0f/630386f64c5bbd56ab1c3b0f_Images/630386f64c5bbd56ab1c3b0f_Image_27.jpeg,liked,3.562416326,,,,,,,,,,,,,,
,,,,,,space,2.9792,NAN,,NAN,,0,37,37,37,1,38,Riley,Acc,Participant_Images/630386f64c5bbd56ab1c3b0f/630386f64c5bbd56ab1c3b0f_Images/630386f64c5bbd56ab1c3b0f_Image_21.jpeg,did not like,2.843822497,,,,,,,,,,,,,,
,,,,,,space,0.525,NAN,,NAN,,0,38,38,38,1,39,Riley,Acc,Participant_Images/630386f64c5bbd56ab1c3b0f/630386f64c5bbd56ab1c3b0f_Images/630386f64c5bbd56ab1c3b0f_Image_16.jpeg,liked,3.546495948,,,,,,,,,,,,,,
,,,,,,,,,,,,,,,,,,,,,,,s,1,space,0.8551,0,0,0,0,1,1.8025,h,0.5847,,
,,,,,,,,NAN,,NAN,,0,39,39,39,1,40,Riley,Acc,Participant_Images/630386f64c5bbd56ab1c3b0f/630386f64c5bbd56ab1c3b0f_Images/630386f64c5bbd56ab1c3b0f_Image_18.jpeg,liked,1.672012706,,,,,,,,,,,,,,
,,,,,,space,2.8256,NAN,,NAN,,0,40,40,40,1,41,Riley,Acc,Participant_Images/630386f64c5bbd56ab1c3b0f/630386f64c5bbd56ab1c3b0f_Images/630386f64c5bbd56ab1c3b0f_Image_20.jpeg,did not like,4.942172136,,,,,,,,,,,,,,
,,,,,,space,0.2344,NAN,,NAN,,0,41,41,41,1,42,Riley,Acc,Participant_Images/630386f64c5bbd56ab1c3b0f/630386f64c5bbd56ab1c3b0f_Images/630386f64c5bbd56ab1c3b0f_Image_10.jpeg,liked,2.50187214,,,,,,,,,,,,,,
,,,,,,space,1.9515,NAN,,NAN,,0,42,42,42,1,43,Riley,Acc,Participant_Images/630386f64c5bbd56ab1c3b0f/630386f64c5bbd56ab1c3b0f_Images/630386f64c5bbd56ab1c3b0f_Image_15.jpeg,did not like,2.071164779,,,,,,,,,,,,,,
,,,,,,space,2.8599,NAN,,NAN,,0,43,43,43,1,44,Riley,Acc,Participant_Images/630386f64c5bbd56ab1c3b0f/630386f64c5bbd56ab1c3b0f_Images/630386f64c5bbd56ab1c3b0f_Image_8.jpeg,did not like,5.336503566,,,,,,,,,,,,,,
,,,,,,,,,,,,,,,,,,,,,,,s,1,space,2.0732,0,0,0,0,1,3.7797,h,1.1201,,
,,,,,,,,NAN,,NAN,,0,44,44,44,1,45,Riley,Acc,Participant_Images/630386f64c5bbd56ab1c3b0f/630386f64c5bbd56ab1c3b0f_Images/630386f64c5bbd56ab1c3b0f_Image_22.jpeg,did not like,2.642157193,,,,,,,,,,,,,,
,,,,,,space,1.6564,NAN,,NAN,,0,45,45,45,1,46,Riley,Acc,Participant_Images/630386f64c5bbd56ab1c3b0f/630386f64c5bbd56ab1c3b0f_Images/630386f64c5bbd56ab1c3b0f_Image_14.jpeg,liked,4.456234322,,,,,,,,,,,,,,
,,,,,,space,2.18,NAN,,NAN,,0,46,46,46,1,47,Riley,Acc,Participant_Images/630386f64c5bbd56ab1c3b0f/630386f64c5bbd56ab1c3b0f_Images/630386f64c5bbd56ab1c3b0f_Image_12.jpeg,liked,4.438512181,,,,,,,,,,,,,,
,,,,,,space,0.8095,NAN,,NAN,,0,47,47,47,1,48,Riley,Acc,Participant_Images/630386f64c5bbd56ab1c3b0f/630386f64c5bbd56ab1c3b0f_Images/630386f64c5bbd56ab1c3b0f_Image_4.jpeg,did not like,2.682944783,,,,,,,,,,,,,,
,,,,,,space,0.5571,NAN,,NAN,,0,48,48,48,1,49,Riley,Acc,Participant_Images/630386f64c5bbd56ab1c3b0f/630386f64c5bbd56ab1c3b0f_Images/630386f64c5bbd56ab1c3b0f_Image_6.jpeg,liked,4.51984296,,,,,,,,,,,,,,
,,,,,,,,,,,,,,,,,,,,,,,s,1,space,1.3616,0,0,0,0,1,2.1616,h,0.9904,,
,,,,,,,,NAN,,NAN,,0,49,49,49,1,50,Riley,Acc,Participant_Images/630386f64c5bbd56ab1c3b0f/630386f64c5bbd56ab1c3b0f_Images/630386f64c5bbd56ab1c3b0f_Image_28.jpeg,liked,3.195382774,,,,,,,,,,,,,,
,,,,,,space,0.3891,NAN,,NAN,,0,50,50,50,1,51,Riley,Acc,Participant_Images/630386f64c5bbd56ab1c3b0f/630386f64c5bbd56ab1c3b0f_Images/630386f64c5bbd56ab1c3b0f_Image_5.jpeg,liked,1.779333479,,,,,,,,,,,,,,
,,,,,,space,0.2692,NAN,,NAN,,0,51,51,51,1,52,Riley,Acc,Participant_Images/630386f64c5bbd56ab1c3b0f/630386f64c5bbd56ab1c3b0f_Images/630386f64c5bbd56ab1c3b0f_Image_3.jpeg,did not like,4.312468682,,,,,,,,,,,,,,
,,,,,,space,0.3208,NAN,,NAN,,0,52,52,52,1,53,Riley,Acc,Participant_Images/630386f64c5bbd56ab1c3b0f/630386f64c5bbd56ab1c3b0f_Images/630386f64c5bbd56ab1c3b0f_Image_11.jpeg,liked,4.940433059,,,,,,,,,,,,,,
,,,,,,space,0.6416,NAN,,NAN,,0,53,53,53,1,54,Riley,Acc,Participant_Images/630386f64c5bbd56ab1c3b0f/630386f64c5bbd56ab1c3b0f_Images/630386f64c5bbd56ab1c3b0f_Image_30.jpeg,did not like,2.7105123,,,,,,,,,,,,,,
,,,,,,,,,,,,,,,,,,,,,,,s,1,space,4.919,0,0,0,0,1,1.1968,h,0.2752,,
,,,,,,,,NAN,,NAN,,0,54,54,54,1,55,Riley,Acc,Participant_Images/630386f64c5bbd56ab1c3b0f/630386f64c5bbd56ab1c3b0f_Images/630386f64c5bbd56ab1c3b0f_Image_17.jpeg,liked,3.602308302,,,,,,,,,,,,,,
,,,,,,space,1.1262,NAN,,NAN,,0,55,55,55,1,56,Riley,Acc,Participant_Images/630386f64c5bbd56ab1c3b0f/630386f64c5bbd56ab1c3b0f_Images/630386f64c5bbd56ab1c3b0f_Image_7.jpeg,liked,4.106391878,,,,,,,,,,,,,,
,,,,,,space,0.7259,NAN,,NAN,,0,56,56,56,1,57,Riley,Acc,Participant_Images/630386f64c5bbd56ab1c3b0f/630386f64c5bbd56ab1c3b0f_Images/630386f64c5bbd56ab1c3b0f_Image_13.jpeg,liked,3.799433026,,,,,,,,,,,,,,
,,,,,,space,0.8693,NAN,,NAN,,0,57,57,57,1,58,Riley,Acc,Participant_Images/630386f64c5bbd56ab1c3b0f/630386f64c5bbd56ab1c3b0f_Images/630386f64c5bbd56ab1c3b0f_Image_1.jpeg,did not like,5.246980764,,,,,,,,,,,,,,
,,,,,,space,1.306,NAN,,NAN,,0,58,58,58,1,59,Riley,Acc,Participant_Images/630386f64c5bbd56ab1c3b0f/630386f64c5bbd56ab1c3b0f_Images/630386f64c5bbd56ab1c3b0f_Image_25.jpeg,liked,3.30081769,,,,,,,,,,,,,,
,,,,,,,,,,,,,,,,,,,,,,,s,1,space,1.1402,0,0,0,0,1,2.1102,h,0.5042,,
,,,,,,,,3,,9,,0,59,59,59,1,60,Riley,Acc,Participant_Images/630386f64c5bbd56ab1c3b0f/630386f64c5bbd56ab1c3b0f_Images/630386f64c5bbd56ab1c3b0f_Image_19.jpeg,liked,1.661473164,,,,,,,,,,,,,,
,,,,space,8.2626,space,0.5091,NAN,,NAN,,0,60,60,60,1,61,Charlie,Rej,Participant_Images/630386f64c5bbd56ab1c3b0f/630386f64c5bbd56ab1c3b0f_Images/630386f64c5bbd56ab1c3b0f_Image_1.jpeg,did not like,3.613205605,,,,,,,,,,,,,,
,,,,,,space,0.6355,NAN,,NAN,,0,61,61,61,1,62,Charlie,Rej,Participant_Images/630386f64c5bbd56ab1c3b0f/630386f64c5bbd56ab1c3b0f_Images/630386f64c5bbd56ab1c3b0f_Image_25.jpeg,did not like,4.988446431,,,,,,,,,,,,,,
,,,,,,space,0.2861,NAN,,NAN,,0,62,62,62,1,63,Charlie,Rej,Participant_Images/630386f64c5bbd56ab1c3b0f/630386f64c5bbd56ab1c3b0f_Images/630386f64c5bbd56ab1c3b0f_Image_28.jpeg,liked,3.470791822,,,,,,,,,,,,,,
,,,,,,space,1.0623,NAN,,NAN,,0,63,63,63,1,64,Charlie,Rej,Participant_Images/630386f64c5bbd56ab1c3b0f/630386f64c5bbd56ab1c3b0f_Images/630386f64c5bbd56ab1c3b0f_Image_26.jpeg,liked,3.820572462,,,,,,,,,,,,,,
,,,,,,,,,,,,,,,,,,,,,,,s,1,space,1.738,0,0,0,0,1,2.2383,h,1.6929,,
,,,,,,,,NAN,,NAN,,0,64,64,64,1,65,Charlie,Rej,Participant_Images/630386f64c5bbd56ab1c3b0f/630386f64c5bbd56ab1c3b0f_Images/630386f64c5bbd56ab1c3b0f_Image_4.jpeg,did not like,2.455989137,,,,,,,,,,,,,,
,,,,,,space,1.0105,NAN,,NAN,,0,65,65,65,1,66,Charlie,Rej,Participant_Images/630386f64c5bbd56ab1c3b0f/630386f64c5bbd56ab1c3b0f_Images/630386f64c5bbd56ab1c3b0f_Image_10.jpeg,did not like,3.79605092,,,,,,,,,,,,,,
,,,,,,space,0.3127,NAN,,NAN,,0,66,66,66,1,67,Charlie,Rej,Participant_Images/630386f64c5bbd56ab1c3b0f/630386f64c5bbd56ab1c3b0f_Images/630386f64c5bbd56ab1c3b0f_Image_13.jpeg,did not like,3.562416326,,,,,,,,,,,,,,
,,,,,,space,3.3257,NAN,,NAN,,0,67,67,67,1,68,Charlie,Rej,Participant_Images/630386f64c5bbd56ab1c3b0f/630386f64c5bbd56ab1c3b0f_Images/630386f64c5bbd56ab1c3b0f_Image_2.jpeg,did not like,2.843822497,,,,,,,,,,,,,,
,,,,,,space,0.1418,NAN,,NAN,,0,68,68,68,1,69,Charlie,Rej,Participant_Images/630386f64c5bbd56ab1c3b0f/630386f64c5bbd56ab1c3b0f_Images/630386f64c5bbd56ab1c3b0f_Image_22.jpeg,did not like,3.546495948,,,,,,,,,,,,,,
,,,,,,,,,,,,,,,,,,,,,,,s,1,space,1.8795,0,0,0,0,1,2.7645,h,0.4117,,
,,,,,,,,NAN,,NAN,,0,69,69,69,1,70,Charlie,Rej,Participant_Images/630386f64c5bbd56ab1c3b0f/630386f64c5bbd56ab1c3b0f_Images/630386f64c5bbd56ab1c3b0f_Image_9.jpeg,did not like,1.672012706,,,,,,,,,,,,,,
,,,,,,space,1.1384,NAN,,NAN,,0,70,70,70,1,71,Charlie,Rej,Participant_Images/630386f64c5bbd56ab1c3b0f/630386f64c5bbd56ab1c3b0f_Images/630386f64c5bbd56ab1c3b0f_Image_16.jpeg,did not like,4.942172136,,,,,,,,,,,,,,
,,,,,,space,0.7039,NAN,,NAN,,0,71,71,71,1,72,Charlie,Rej,Participant_Images/630386f64c5bbd56ab1c3b0f/630386f64c5bbd56ab1c3b0f_Images/630386f64c5bbd56ab1c3b0f_Image_11.jpeg,did not like,2.50187214,,,,,,,,,,,,,,
,,,,,,space,2.2404,NAN,,NAN,,0,72,72,72,1,73,Charlie,Rej,Participant_Images/630386f64c5bbd56ab1c3b0f/630386f64c5bbd56ab1c3b0f_Images/630386f64c5bbd56ab1c3b0f_Image_27.jpeg,did not like,2.071164779,,,,,,,,,,,,,,
,,,,,,space,0.1353,NAN,,NAN,,0,73,73,73,1,74,Charlie,Rej,Participant_Images/630386f64c5bbd56ab1c3b0f/630386f64c5bbd56ab1c3b0f_Images/630386f64c5bbd56ab1c3b0f_Image_12.jpeg,liked,5.336503566,,,,,,,,,,,,,,
,,,,,,,,,,,,,,,,,,,,,,,s,1,space,1.1424,0,0,0,0,1,1.6601,h,0.5065,,
,,,,,,,,NAN,,NAN,,0,74,74,74,1,75,Charlie,Rej,Participant_Images/630386f64c5bbd56ab1c3b0f/630386f64c5bbd56ab1c3b0f_Images/630386f64c5bbd56ab1c3b0f_Image_15.jpeg,liked,2.642157193,,,,,,,,,,,,,,
,,,,,,space,0.6516,NAN,,NAN,,0,75,75,75,1,76,Charlie,Rej,Participant_Images/630386f64c5bbd56ab1c3b0f/630386f64c5bbd56ab1c3b0f_Images/630386f64c5bbd56ab1c3b0f_Image_18.jpeg,did not like,4.456234322,,,,,,,,,,,,,,
,,,,,,space,0.3901,NAN,,NAN,,0,76,76,76,1,77,Charlie,Rej,Participant_Images/630386f64c5bbd56ab1c3b0f/630386f64c5bbd56ab1c3b0f_Images/630386f64c5bbd56ab1c3b0f_Image_14.jpeg,did not like,4.438512181,,,,,,,,,,,,,,
,,,,,,space,0.9102,NAN,,NAN,,0,77,77,77,1,78,Charlie,Rej,Participant_Images/630386f64c5bbd56ab1c3b0f/630386f64c5bbd56ab1c3b0f_Images/630386f64c5bbd56ab1c3b0f_Image_23.jpeg,did not like,2.682944783,,,,,,,,,,,,,,
,,,,,,space,1.6102,NAN,,NAN,,0,78,78,78,1,79,Charlie,Rej,Participant_Images/630386f64c5bbd56ab1c3b0f/630386f64c5bbd56ab1c3b0f_Images/630386f64c5bbd56ab1c3b0f_Image_30.jpeg,liked,4.51984296,,,,,,,,,,,,,,
,,,,,,,,,,,,,,,,,,,,,,,s,1,space,0.9745,0,0,0,0,1,3.2446,h,0.2981,,
,,,,,,,,NAN,,NAN,,0,79,79,79,1,80,Charlie,Rej,Participant_Images/630386f64c5bbd56ab1c3b0f/630386f64c5bbd56ab1c3b0f_Images/630386f64c5bbd56ab1c3b0f_Image_5.jpeg,did not like,3.195382774,,,,,,,,,,,,,,
,,,,,,space,0.7373,NAN,,NAN,,0,80,80,80,1,81,Charlie,Rej,Participant_Images/630386f64c5bbd56ab1c3b0f/630386f64c5bbd56ab1c3b0f_Images/630386f64c5bbd56ab1c3b0f_Image_21.jpeg,liked,1.779333479,,,,,,,,,,,,,,
,,,,,,space,3.4802,NAN,,NAN,,0,81,81,81,1,82,Charlie,Rej,Participant_Images/630386f64c5bbd56ab1c3b0f/630386f64c5bbd56ab1c3b0f_Images/630386f64c5bbd56ab1c3b0f_Image_29.jpeg,did not like,4.312468682,,,,,,,,,,,,,,
,,,,,,space,0.1195,NAN,,NAN,,0,82,82,82,1,83,Charlie,Rej,Participant_Images/630386f64c5bbd56ab1c3b0f/630386f64c5bbd56ab1c3b0f_Images/630386f64c5bbd56ab1c3b0f_Image_6.jpeg,liked,4.940433059,,,,,,,,,,,,,,
,,,,,,space,0.5076,NAN,,NAN,,0,83,83,83,1,84,Charlie,Rej,Participant_Images/630386f64c5bbd56ab1c3b0f/630386f64c5bbd56ab1c3b0f_Images/630386f64c5bbd56ab1c3b0f_Image_8.jpeg,did not like,2.7105123,,,,,,,,,,,,,,
,,,,,,,,,,,,,,,,,,,,,,,s,1,space,1.2604,0,0,0,0,1,1.8836,h,0.4236,,
,,,,,,,,NAN,,NAN,,0,84,84,84,1,85,Charlie,Rej,Participant_Images/630386f64c5bbd56ab1c3b0f/630386f64c5bbd56ab1c3b0f_Images/630386f64c5bbd56ab1c3b0f_Image_3.jpeg,did not like,3.602308302,,,,,,,,,,,,,,
,,,,,,space,1.7421,NAN,,NAN,,0,85,85,85,1,86,Charlie,Rej,Participant_Images/630386f64c5bbd56ab1c3b0f/630386f64c5bbd56ab1c3b0f_Images/630386f64c5bbd56ab1c3b0f_Image_20.jpeg,did not like,4.106391878,,,,,,,,,,,,,,
,,,,,,space,0.0607,NAN,,NAN,,0,86,86,86,1,87,Charlie,Rej,Participant_Images/630386f64c5bbd56ab1c3b0f/630386f64c5bbd56ab1c3b0f_Images/630386f64c5bbd56ab1c3b0f_Image_19.jpeg,liked,3.799433026,,,,,,,,,,,,,,
,,,,,,space,2.7565,NAN,,NAN,,0,87,87,87,1,88,Charlie,Rej,Participant_Images/630386f64c5bbd56ab1c3b0f/630386f64c5bbd56ab1c3b0f_Images/630386f64c5bbd56ab1c3b0f_Image_7.jpeg,did not like,5.246980764,,,,,,,,,,,,,,
,,,,,,space,0.6088,NAN,,NAN,,0,88,88,88,1,89,Charlie,Rej,Participant_Images/630386f64c5bbd56ab1c3b0f/630386f64c5bbd56ab1c3b0f_Images/630386f64c5bbd56ab1c3b0f_Image_17.jpeg,did not like,3.30081769,,,,,,,,,,,,,,
,,,,,,,,,,,,,,,,,,,,,,,s,1,space,1.9842,0,0,0,0,1,2.4454,h,0.9277,,
,,,,,,,,3,,9,,0,89,89,89,1,90,Charlie,Rej,Participant_Images/630386f64c5bbd56ab1c3b0f/630386f64c5bbd56ab1c3b0f_Images/630386f64c5bbd56ab1c3b0f_Image_24.jpeg,liked,1.661473164,,,,,,,,,,,,,,
,,,,space,2.1319,space,1.7984,NAN,,NAN,,0,90,90,90,1,91,Taylor,Rej,Participant_Images/630386f64c5bbd56ab1c3b0f/630386f64c5bbd56ab1c3b0f_Images/630386f64c5bbd56ab1c3b0f_Image_1.jpeg,liked,3.613205605,,,,,,,,,,,,,,
,,,,,,space,0.5044,NAN,,NAN,,0,91,91,91,1,92,Taylor,Rej,Participant_Images/630386f64c5bbd56ab1c3b0f/630386f64c5bbd56ab1c3b0f_Images/630386f64c5bbd56ab1c3b0f_Image_21.jpeg,liked,4.988446431,,,,,,,,,,,,,,
,,,,,,space,0.7208,NAN,,NAN,,0,92,92,92,1,93,Taylor,Rej,Participant_Images/630386f64c5bbd56ab1c3b0f/630386f64c5bbd56ab1c3b0f_Images/630386f64c5bbd56ab1c3b0f_Image_15.jpeg,did not like,3.470791822,,,,,,,,,,,,,,
,,,,,,space,1.6096,NAN,,NAN,,0,93,93,93,1,94,Taylor,Rej,Participant_Images/630386f64c5bbd56ab1c3b0f/630386f64c5bbd56ab1c3b0f_Images/630386f64c5bbd56ab1c3b0f_Image_7.jpeg,liked,3.820572462,,,,,,,,,,,,,,
,,,,,,,,,,,,,,,,,,,,,,,s,1,space,1.7685,0,0,0,0,1,2.4139,h,0.4466,,
,,,,,,,,NAN,,NAN,,0,94,94,94,1,95,Taylor,Rej,Participant_Images/630386f64c5bbd56ab1c3b0f/630386f64c5bbd56ab1c3b0f_Images/630386f64c5bbd56ab1c3b0f_Image_30.jpeg,did not like,2.455989137,,,,,,,,,,,,,,
,,,,,,space,0.0534,NAN,,NAN,,0,95,95,95,1,96,Taylor,Rej,Participant_Images/630386f64c5bbd56ab1c3b0f/630386f64c5bbd56ab1c3b0f_Images/630386f64c5bbd56ab1c3b0f_Image_12.jpeg,did not like,3.79605092,,,,,,,,,,,,,,
,,,,,,space,0.2234,NAN,,NAN,,0,96,96,96,1,97,Taylor,Rej,Participant_Images/630386f64c5bbd56ab1c3b0f/630386f64c5bbd56ab1c3b0f_Images/630386f64c5bbd56ab1c3b0f_Image_23.jpeg,liked,3.562416326,,,,,,,,,,,,,,
,,,,,,space,0.0072,NAN,,NAN,,0,97,97,97,1,98,Taylor,Rej,Participant_Images/630386f64c5bbd56ab1c3b0f/630386f64c5bbd56ab1c3b0f_Images/630386f64c5bbd56ab1c3b0f_Image_17.jpeg,did not like,2.843822497,,,,,,,,,,,,,,
,,,,,,space,1.0584,NAN,,NAN,,0,98,98,98,1,99,Taylor,Rej,Participant_Images/630386f64c5bbd56ab1c3b0f/630386f64c5bbd56ab1c3b0f_Images/630386f64c5bbd56ab1c3b0f_Image_24.jpeg,did not like,3.546495948,,,,,,,,,,,,,,
,,,,,,,,,,,,,,,,,,,,,,,s,1,space,0.7225,0,0,0,0,1,1.8696,h,0.8029,,
,,,,,,,,NAN,,NAN,,0,99,99,99,1,100,Taylor,Rej,Participant_Images/630386f64c5bbd56ab1c3b0f/630386f64c5bbd56ab1c3b0f_Images/630386f64c5bbd56ab1c3b0f_Image_16.jpeg,liked,1.672012706,,,,,,,,,,,,,,
,,,,,,space,0.9372,NAN,,NAN,,0,100,100,100,1,101,Taylor,Rej,Participant_Images/630386f64c5bbd56ab1c3b0f/630386f64c5bbd56ab1c3b0f_Images/630386f64c5bbd56ab1c3b0f_Image_14.jpeg,did not like,4.942172136,,,,,,,,,,,,,,
,,,,,,space,0.9367,NAN,,NAN,,0,101,101,101,1,102,Taylor,Rej,Participant_Images/630386f64c5bbd56ab1c3b0f/630386f64c5bbd56ab1c3b0f_Images/630386f64c5bbd56ab1c3b0f_Image_3.jpeg,did not like,2.50187214,,,,,,,,,,,,,,
,,,,,,space,2.2421,NAN,,NAN,,0,102,102,102,1,103,Taylor,Rej,Participant_Images/630386f64c5bbd56ab1c3b0f/630386f64c5bbd56ab1c3b0f_Images/630386f64c5bbd56ab1c3b0f_Image_13.jpeg,did not like,2.071164779,,,,,,,,,,,,,,
,,,,,,space,0.6417,NAN,,NAN,,0,103,103,103,1,104,Taylor,Rej,Participant_Images/630386f64c5bbd56ab1c3b0f/630386f64c5bbd56ab1c3b0f_Images/630386f64c5bbd56ab1c3b0f_Image_4.jpeg,did not like,5.336503566,,,,,,,,,,,,,,
,,,,,,,,,,,,,,,,,,,,,,,s,1,space,2.0712,0,0,0,0,1,1.4429,h,0.5424,,
,,,,,,,,NAN,,NAN,,0,104,104,104,1,105,Taylor,Rej,Participant_Images/630386f64c5bbd56ab1c3b0f/630386f64c5bbd56ab1c3b0f_Images/630386f64c5bbd56ab1c3b0f_Image_25.jpeg,liked,2.642157193,,,,,,,,,,,,,,
,,,,,,space,0.2203,NAN,,NAN,,0,105,105,105,1,106,Taylor,Rej,Participant_Images/630386f64c5bbd56ab1c3b0f/630386f64c5bbd56ab1c3b0f_Images/630386f64c5bbd56ab1c3b0f_Image_27.jpeg,did not like,4.456234322,,,,,,,,,,,,,,
,,,,,,space,0.7259,NAN,,NAN,,0,106,106,106,1,107,Taylor,Rej,Participant_Images/630386f64c5bbd56ab1c3b0f/630386f64c5bbd56ab1c3b0f_Images/630386f64c5bbd56ab1c3b0f_Image_26.jpeg,did not like,4.438512181,,,,,,,,,,,,,,
,,,,,,space,1.1461,NAN,,NAN,,0,107,107,107,1,108,Taylor,Rej,Participant_Images/630386f64c5bbd56ab1c3b0f/630386f64c5bbd56ab1c3b0f_Images/630386f64c5bbd56ab1c3b0f_Image_28.jpeg,did not like,2.682944783,,,,,,,,,,,,,,
,,,,,,space,0.1059,NAN,,NAN,,0,108,108,108,1,109,Taylor,Rej,Participant_Images/630386f64c5bbd56ab1c3b0f/630386f64c5bbd56ab1c3b0f_Images/630386f64c5bbd56ab1c3b0f_Image_8.jpeg,did not like,4.51984296,,,,,,,,,,,,,,
,,,,,,,,,,,,,,,,,,,,,,,s,1,space,0.5738,0,0,0,0,1,1.224,h,0.5633,,
,,,,,,,,NAN,,NAN,,0,109,109,109,1,110,Taylor,Rej,Participant_Images/630386f64c5bbd56ab1c3b0f/630386f64c5bbd56ab1c3b0f_Images/630386f64c5bbd56ab1c3b0f_Image_9.jpeg,did not like,3.195382774,,,,,,,,,,,,,,
,,,,,,space,1.1038,NAN,,NAN,,0,110,110,110,1,111,Taylor,Rej,Participant_Images/630386f64c5bbd56ab1c3b0f/630386f64c5bbd56ab1c3b0f_Images/630386f64c5bbd56ab1c3b0f_Image_19.jpeg,liked,1.779333479,,,,,,,,,,,,,,
,,,,,,space,0.243,NAN,,NAN,,0,111,111,111,1,112,Taylor,Rej,Participant_Images/630386f64c5bbd56ab1c3b0f/630386f64c5bbd56ab1c3b0f_Images/630386f64c5bbd56ab1c3b0f_Image_11.jpeg,did not like,4.312468682,,,,,,,,,,,,,,
,,,,,,space,1.0371,NAN,,NAN,,0,112,112,112,1,113,Taylor,Rej,Participant_Images/630386f64c5bbd56ab1c3b0f/630386f64c5bbd56ab1c3b0f_Images/630386f64c5bbd56ab1c3b0f_Image_2.jpeg,did not like,4.940433059,,,,,,,,,,,,,,
,,,,,,space,0.0856,NAN,,NAN,,0,113,113,113,1,114,Taylor,Rej,Participant_Images/630386f64c5bbd56ab1c3b0f/630386f64c5bbd56ab1c3b0f_Images/630386f64c5bbd56ab1c3b0f_Image_22.jpeg,did not like,2.7105123,,,,,,,,,,,,,,
,,,,,,,,,,,,,,,,,,,,,,,s,1,space,1.7569,0,0,0,0,1,1.9096,h,0.8141,,
,,,,,,,,NAN,,NAN,,0,114,114,114,1,115,Taylor,Rej,Participant_Images/630386f64c5bbd56ab1c3b0f/630386f64c5bbd56ab1c3b0f_Images/630386f64c5bbd56ab1c3b0f_Image_29.jpeg,did not like,3.602308302,,,,,,,,,,,,,,
,,,,,,space,0.0847,NAN,,NAN,,0,115,115,115,1,116,Taylor,Rej,Participant_Images/630386f64c5bbd56ab1c3b0f/630386f64c5bbd56ab1c3b0f_Images/630386f64c5bbd56ab1c3b0f_Image_18.jpeg,did not like,4.106391878,,,,,,,,,,,,,,
,,,,,,space,0.0222,NAN,,NAN,,0,116,116,116,1,117,Taylor,Rej,Participant_Images/630386f64c5bbd56ab1c3b0f/630386f64c5bbd56ab1c3b0f_Images/630386f64c5bbd56ab1c3b0f_Image_6.jpeg,did not like,3.799433026,,,,,,,,,,,,,,
,,,,,,space,0.4342,NAN,,NAN,,0,117,117,117,1,118,Taylor,Rej,Participant_Images/630386f64c5bbd56ab1c3b0f/630386f64c5bbd56ab1c3b0f_Images/630386f64c5bbd56ab1c3b0f_Image_5.jpeg,liked,5.246980764,,,,,,,,,,,,,,
,,,,,,space,0.2402,NAN,,NAN,,0,118,118,118,1,119,Taylor,Rej,Participant_Images/630386f64c5bbd56ab1c3b0f/630386f64c5bbd56ab1c3b0f_Images/630386f64c5bbd56ab1c3b0f_Image_20.jpeg,did not like,3.30081769,,,,,,,,,,,,,,
,,,,,,,,,,,,,,,,,,,,,,,s,1,space,3.4454,0,0,0,0,1,1.8411,h,0.502,,
,,,,,,,,3,,9,,0,119,119,119,1,120,Taylor,Rej,Participant_Images/630386f64c5bbd56ab1c3b0f/630386f64c5bbd56ab1c3b0f_Images/630386f64c5bbd56ab1c3b0f_Image_10.jpeg,liked,1.661473164,,,,,,,,,,,,,,
,,,,space,2.476,space,0.2228,NAN,,NAN,,0,120,120,120,1,121,Sam,Neutral,Participant_Images/630386f64c5bbd56ab1c3b0f/630386f64c5bbd56ab1c3b0f_Images/630386f64c5bbd56ab1c3b0f_Image_10.jpeg,did not like,3.613205605,,,,,,,,,,,,,,
,,,,,,space,0.1865,NAN,,NAN,,0,121,121,121,1,122,Sam,Neutral,Participant_Images/630386f64c5bbd56ab1c3b0f/630386f64c5bbd56ab1c3b0f_Images/630386f64c5bbd56ab1c3b0f_Image_9.jpeg,liked,4.988446431,,,,,,,,,,,,,,
,,,,,,space,0.1347,NAN,,NAN,,0,122,122,122,1,123,Sam,Neutral,Participant_Images/630386f64c5bbd56ab1c3b0f/630386f64c5bbd56ab1c3b0f_Images/630386f64c5bbd56ab1c3b0f_Image_21.jpeg,did not like,3.470791822,,,,,,,,,,,,,,
,,,,,,space,0.7594,NAN,,NAN,,0,123,123,123,1,124,Sam,Neutral,Participant_Images/630386f64c5bbd56ab1c3b0f/630386f64c5bbd56ab1c3b0f_Images/630386f64c5bbd56ab1c3b0f_Image_15.jpeg,liked,3.820572462,,,,,,,,,,,,,,
,,,,,,,,,,,,,,,,,,,,,,,s,1,space,1.4933,0,0,0,0,1,3.6073,h,0.586,,
,,,,,,,,NAN,,NAN,,0,124,124,124,1,125,Sam,Neutral,Participant_Images/630386f64c5bbd56ab1c3b0f/630386f64c5bbd56ab1c3b0f_Images/630386f64c5bbd56ab1c3b0f_Image_16.jpeg,did not like,2.455989137,,,,,,,,,,,,,,
,,,,,,space,0.827,NAN,,NAN,,0,125,125,125,1,126,Sam,Neutral,Participant_Images/630386f64c5bbd56ab1c3b0f/630386f64c5bbd56ab1c3b0f_Images/630386f64c5bbd56ab1c3b0f_Image_2.jpeg,did not like,3.79605092,,,,,,,,,,,,,,
,,,,,,space,1.6542,NAN,,NAN,,0,126,126,126,1,127,Sam,Neutral,Participant_Images/630386f64c5bbd56ab1c3b0f/630386f64c5bbd56ab1c3b0f_Images/630386f64c5bbd56ab1c3b0f_Image_8.jpeg,liked,3.562416326,,,,,,,,,,,,,,
,,,,,,space,0.5042,NAN,,NAN,,0,127,127,127,1,128,Sam,Neutral,Participant_Images/630386f64c5bbd56ab1c3b0f/630386f64c5bbd56ab1c3b0f_Images/630386f64c5bbd56ab1c3b0f_Image_27.jpeg,did not like,2.843822497,,,,,,,,,,,,,,
,,,,,,space,2.4322,NAN,,NAN,,0,128,128,128,1,129,Sam,Neutral,Participant_Images/630386f64c5bbd56ab1c3b0f/630386f64c5bbd56ab1c3b0f_Images/630386f64c5bbd56ab1c3b0f_Image_6.jpeg,did not like,3.546495948,,,,,,,,,,,,,,
,,,,,,,,,,,,,,,,,,,,,,,s,1,space,3.5461,0,0,0,0,1,1.2034,h,0.3663,,
,,,,,,,,NAN,,NAN,,0,129,129,129,1,130,Sam,Neutral,Participant_Images/630386f64c5bbd56ab1c3b0f/630386f64c5bbd56ab1c3b0f_Images/630386f64c5bbd56ab1c3b0f_Image_11.jpeg,did not like,1.672012706,,,,,,,,,,,,,,
,,,,,,space,0.1509,NAN,,NAN,,0,130,130,130,1,131,Sam,Neutral,Participant_Images/630386f64c5bbd56ab1c3b0f/630386f64c5bbd56ab1c3b0f_Images/630386f64c5bbd56ab1c3b0f_Image_26.jpeg,did not like,4.942172136,,,,,,,,,,,,,,
,,,,,,space,3.0257,NAN,,NAN,,0,131,131,131,1,132,Sam,Neutral,Participant_Images/630386f64c5bbd56ab1c3b0f/630386f64c5bbd56ab1c3b0f_Images/630386f64c5bbd56ab1c3b0f_Image_7.jpeg,liked,2.50187214,,,,,,,,,,,,,,
,,,,,,space,2.2102,NAN,,NAN,,0,132,132,132,1,133,Sam,Neutral,Participant_Images/630386f64c5bbd56ab1c3b0f/630386f64c5bbd56ab1c3b0f_Images/630386f64c5bbd56ab1c3b0f_Image_24.jpeg,did not like,2.071164779,,,,,,,,,,,,,,
,,,,,,space,2.0289,NAN,,NAN,,0,133,133,133,1,134,Sam,Neutral,Participant_Images/630386f64c5bbd56ab1c3b0f/630386f64c5bbd56ab1c3b0f_Images/630386f64c5bbd56ab1c3b0f_Image_28.jpeg,liked,5.336503566,,,,,,,,,,,,,,
,,,,,,,,,,,,,,,,,,,,,,,s,1,space,1.7266,0,0,0,0,1,0.8334,h,0.5361,,
,,,,,,,,NAN,,NAN,,0,134,134,134,1,135,Sam,Neutral,Participant_Images/630386f64c5bbd56ab1c3b0f/630386f64c5bbd56ab1c3b0f_Images/630386f64c5bbd56ab1c3b0f_Image_12.jpeg,did not like,2.642157193,,,,,,,,,,,,,,
,,,,,,space,1.5553,NAN,,NAN,,0,135,135,135,1,136,Sam,Neutral,Participant_Images/630386f64c5bbd56ab1c3b0f/630386f64c5bbd56ab1c3b0f_Images/630386f64c5bbd56ab1c3b0f_Image_13.jpeg,liked,4.456234322,,,,,,,,,,,,,,
,,,,,,space,0.4797,NAN,,NAN,,0,136,136,136,1,137,Sam,Neutral,Participant_Images/630386f64c5bbd56ab1c3b0f/630386f64c5bbd56ab1c3b0f_Images/630386f64c5bbd56ab1c3b0f_Image_20.jpeg,liked,4.438512181,,,,,,,,,,,,,,
,,,,,,space,0.4864,NAN,,NAN,,0,137,137,137,1,138,Sam,Neutral,Participant_Images/630386f64c5bbd56ab1c3b0f/630386f64c5bbd56ab1c3b0f_Images/630386f64c5bbd56ab1c3b0f_Image_4.jpeg,did not like,2.682944783,,,,,,,,,,,,,,
,,,,,,space,1.611,NAN,,NAN,,0,138,138,138,1,139,Sam,Neutral,Participant_Images/630386f64c5bbd56ab1c3b0f/630386f64c5bbd56ab1c3b0f_Images/630386f64c5bbd56ab1c3b0f_Image_1.jpeg,liked,4.51984296,,,,,,,,,,,,,,
,,,,,,,,,,,,,,,,,,,,,,,,999,space,1.8729,0,0,0,0,1,,,,,
,,,,,,,,NAN,,NAN,,0,139,139,139,1,140,Sam,Neutral,Participant_Images/630386f64c5bbd56ab1c3b0f/630386f64c5bbd56ab1c3b0f_Images/630386f64c5bbd56ab1c3b0f_Image_3.jpeg,did not like,3.195382774,,,,,,,,,,,,,,
,,,,,,space,2.0005,NAN,,NAN,,0,140,140,140,1,141,Sam,Neutral,Participant_Images/630386f64c5bbd56ab1c3b0f/630386f64c5bbd56ab1c3b0f_Images/630386f64c5bbd56ab1c3b0f_Image_18.jpeg,did not like,1.779333479,,,,,,,,,,,,,,
,,,,,,space,0.4079,NAN,,NAN,,0,141,141,141,1,142,Sam,Neutral,Participant_Images/630386f64c5bbd56ab1c3b0f/630386f64c5bbd56ab1c3b0f_Images/630386f64c5bbd56ab1c3b0f_Image_22.jpeg,liked,4.312468682,,,,,,,,,,,,,,
,,,,,,space,1.3233,NAN,,NAN,,0,142,142,142,1,143,Sam,Neutral,Participant_Images/630386f64c5bbd56ab1c3b0f/630386f64c5bbd56ab1c3b0f_Images/630386f64c5bbd56ab1c3b0f_Image_25.jpeg,did not like,4.940433059,,,,,,,,,,,,,,
,,,,,,space,2.7108,NAN,,NAN,,0,143,143,143,1,144,Sam,Neutral,Participant_Images/630386f64c5bbd56ab1c3b0f/630386f64c5bbd56ab1c3b0f_Images/630386f64c5bbd56ab1c3b0f_Image_5.jpeg,liked,2.7105123,,,,,,,,,,,,,,
,,,,,,,,,,,,,,,,,,,,,,,s,1,space,1.6192,0,0,0,0,1,1.1365,h,0.7883,,
,,,,,,,,NAN,,NAN,,0,144,144,144,1,145,Sam,Neutral,Participant_Images/630386f64c5bbd56ab1c3b0f/630386f64c5bbd56ab1c3b0f_Images/630386f64c5bbd56ab1c3b0f_Image_29.jpeg,did not like,3.602308302,,,,,,,,,,,,,,
,,,,,,space,0.162,NAN,,NAN,,0,145,145,145,1,146,Sam,Neutral,Participant_Images/630386f64c5bbd56ab1c3b0f/630386f64c5bbd56ab1c3b0f_Images/630386f64c5bbd56ab1c3b0f_Image_30.jpeg,liked,4.106391878,,,,,,,,,,,,,,
,,,,,,space,2.0969,NAN,,NAN,,0,146,146,146,1,147,Sam,Neutral,Participant_Images/630386f64c5bbd56ab1c3b0f/630386f64c5bbd56ab1c3b0f_Images/630386f64c5bbd56ab1c3b0f_Image_14.jpeg,liked,3.799433026,,,,,,,,,,,,,,
,,,,,,space,0.9375,NAN,,NAN,,0,147,147,147,1,148,Sam,Neutral,Participant_Images/630386f64c5bbd56ab1c3b0f/630386f64c5bbd56ab1c3b0f_Images/630386f64c5bbd56ab1c3b0f_Image_19.jpeg,liked,5.246980764,,,,,,,,,,,,,,
,,,,,,space,0.2413,NAN,,NAN,,0,148,148,148,1,149,Sam,Neutral,Participant_Images/630386f64c5bbd56ab1c3b0f/630386f64c5bbd56ab1c3b0f_Images/630386f64c5bbd56ab1c3b0f_Image_17.jpeg,liked,3.30081769,,,,,,,,,,,,,,
,,,,,,,,,,,,,,,,,,,,,,,s,1,space,2.0219,0,0,0,0,1,3.9137,h,1.4567,,
,,,,,,,,3,,9,,0,149,149,149,1,150,Sam,Neutral,Participant_Images/630386f64c5bbd56ab1c3b0f/630386f64c5bbd56ab1c3b0f_Images/630386f64c5bbd56ab1c3b0f_Image_23.jpeg,liked,1.661473164,,,,,,,,,,,,,,
,,,,,,,,,,,,,,,,,,,,,,,,,,,,,,,,,,,space,2.962
