PROLIFIC_ID,endwelcomescreen_keys.keys,endwelcomescreen_keys.rt,endinstructionscreen_keys.keys,endinstructionscreen_keys.rt,endpartnermatch_keys.keys,endpartnermatch_keys.rt,sharenextphoto_key.keys,sharenextphoto_key.rt,salience_rating,key_resp.keys,stress_level,stresslevel_keypress.keys,entiretaskloop.thisRepN,entiretaskloop.thisTrialN,entiretaskloop.thisN,entiretaskloop.thisIndex,entiretaskloop.ran,TrialNumber,Partner,Condition,Photos,Feedback,FeedbackWait,choice_keys.keys,playlottery,resumeafterlottery_keys.keys,resumeafterlottery_keys.rt,lotteryloop.thisRepN,lotteryloop.thisTrialN,lotteryloop.thisN,lotteryloop.thisIndex,lotteryloop.ran,choice_keys.rt,lotteryguess_keys.keys,lotteryguess_keys.rt,end_screen_keys.keys,end_screen_keys.rt
630386f64c5bbd56ab1c3b0f,space,8.9589,,,,,,,,,,,,,,,,,,,,,,,,,,,,,,,,,,,
630386f64c5bbd56ab1c3b0f,,,,,,,,,,,,,,,,,,,,,,,,,,,,,,,,,,,,,
630386f64c5bbd56ab1c3b0f,,,space,10.3346,,,,,,,,,,,,,,,,,,,,,,,,,,,,,,,,,
630386f64c5bbd56ab1c3b0f,,,,,space,3.9192,space,3.165,NAN,,NAN,,0.0,0.0,0.0,0.0,1.0,1.0,Alex,Acc,Participant_Images/630386f64c5bbd56ab1c3b0f/630386f64c5bbd56ab1c3b0f_Images/630386f64c5bbd56ab1c3b0f_Image_4.jpeg,did not like,3.613205605,,,,,,,,,,,,,,
630386f64c5bbd56ab1c3b0f,,,,,,,space,1.1291,NAN,,NAN,,0.0,1.0,1.0,1.0,1.0,2.0,Alex,Acc,Participant_Images/630386f64c5bbd56ab1c3b0f/630386f64c5bbd56ab1c3b0f_Images/630386f64c5bbd56ab1c3b0f_Image_25.jpeg,did not like,4.988446431,,,,,,,,,,,,,,
630386f64c5bbd56ab1c3b0f,,,,,,,space,1.4997,NAN,,NAN,,0.0,2.0,2.0,2.0,1.0,3.0,Alex,Acc,Participant_Images/630386f64c5bbd56ab1c3b0f/630386f64c5bbd56ab1c3b0f_Images/630386f64c5bbd56ab1c3b0f_Image_5.jpeg,did not like,3.470791822,,,,,,,,,,,,,,
630386f64c5bbd56ab1c3b0f,,,,,,,space,4.2323,NAN,,NAN,,0.0,3.0,3.0,3.0,1.0,4.0,Alex,Acc,Participant_Images/630386f64c5bbd56ab1c3b0f/630386f64c5bbd56ab1c3b0f_Images/630386f64c5bbd56ab1c3b0f_Image_11.jpeg,did not like,3.820572462,,,,,,,,,,,,,,
630386f64c5bbd56ab1c3b0f,,,,,,,,,,,,,,,,,,,,,,,,,999.0,space,1.9843,0.0,0.0,0.0,0.0,1.0,,,,,
630386f64c5bbd56ab1c3b0f,,,,,,,,,NAN,,NAN,,0.0,4.0,4.0,4.0,1.0,5.0,Alex,Acc,Participant_Images/630386f64c5bbd56ab1c3b0f/630386f64c5bbd56ab1c3b0f_Images/630386f64c5bbd56ab1c3b0f_Image_6.jpeg,did not like,2.455989137,,,,,,,,,,,,,,
630386f64c5bbd56ab1c3b0f,,,,,,,space,4.1359,NAN,,NAN,,0.0,5.0,5.0,5.0,1.0,6.0,Alex,Acc,Participant_Images/630386f64c5bbd56ab1c3b0f/630386f64c5bbd56ab1c3b0f_Images/630386f64c5bbd56ab1c3b0f_Image_27.jpeg,liked,3.79605092,,,,,,,,,,,,,,
630386f64c5bbd56ab1c3b0f,,,,,,,space,2.3794,NAN,,NAN,,0.0,6.0,6.0,6.0,1.0,7.0,Alex,Acc,Participant_Images/630386f64c5bbd56ab1c3b0f/630386f64c5bbd56ab1c3b0f_Images/630386f64c5bbd56ab1c3b0f_Image_3.jpeg,did not like,3.562416326,,,,,,,,,,,,,,
630386f64c5bbd56ab1c3b0f,,,,,,,space,0.5075,NAN,,NAN,,0.0,7.0,7.0,7.0,1.0,8.0,Alex,Acc,Participant_Images/630386f64c5bbd56ab1c3b0f/630386f64c5bbd56ab1c3b0f_Images/630386f64c5bbd56ab1c3b0f_Image_20.jpeg,liked,2.843822497,,,,,,,,,,,,,,
630386f64c5bbd56ab1c3b0f,,,,,,,space,2.0292,NAN,,NAN,,0.0,8.0,8.0,8.0,1.0,9.0,Alex,Acc,Participant_Images/630386f64c5bbd56ab1c3b0f/630386f64c5bbd56ab1c3b0f_Images/630386f64c5bbd56ab1c3b0f_Image_24.jpeg,liked,3.546495948,,,,,,,,,,,,,,
630386f64c5bbd56ab1c3b0f,,,,,,,,,,,,,,,,,,,,,,,,s,1.0,space,0.6481,0.0,0.0,0.0,0.0,1.0,2.943,h,2.8601,,
630386f64c5bbd56ab1c3b0f,,,,,,,,,NAN,,NAN,,0.0,9.0,9.0,9.0,1.0,10.0,Alex,Acc,Participant_Images/630386f64c5bbd56ab1c3b0f/630386f64c5bbd56ab1c3b0f_Images/630386f64c5bbd56ab1c3b0f_Image_15.jpeg,did not like,1.672012706,,,,,,,,,,,,,,
630386f64c5bbd56ab1c3b0f,,,,,,,space,2.3567,NAN,,NAN,,0.0,10.0,10.0,10.0,1.0,11.0,Alex,Acc,Participant_Images/630386f64c5bbd56ab1c3b0f/630386f64c5bbd56ab1c3b0f_Images/630386f64c5bbd56ab1c3b0f_Image_18.jpeg,liked,4.942172136,,,,,,,,,,,,,,
630386f64c5bbd56ab1c3b0f,,,,,,,space,1.1059,NAN,,NAN,,0.0,11.0,11.0,11.0,1.0,12.0,Alex,Acc,Participant_Images/630386f64c5bbd56ab1c3b0f/630386f64c5bbd56ab1c3b0f_Images/630386f64c5bbd56ab1c3b0f_Image_29.jpeg,liked,2.50187214,,,,,,,,,,,,,,
630386f64c5bbd56ab1c3b0f,,,,,,,space,0.8209,NAN,,NAN,,0.0,12.0,12.0,12.0,1.0,13.0,Alex,Acc,Participant_Images/630386f64c5bbd56ab1c3b0f/630386f64c5bbd56ab1c3b0f_Images/630386f64c5bbd56ab1c3b0f_Image_19.jpeg,liked,2.071164779,,,,,,,,,,,,,,
630386f64c5bbd56ab1c3b0f,,,,,,,space,0.8708,NAN,,NAN,,0.0,13.0,13.0,13.0,1.0,14.0,Alex,Acc,Participant_Images/630386f64c5bbd56ab1c3b0f/630386f64c5bbd56ab1c3b0f_Images/630386f64c5bbd56ab1c3b0f_Image_7.jpeg,liked,5.336503566,,,,,,,,,,,,,,
630386f64c5bbd56ab1c3b0f,,,,,,,,,,,,,,,,,,,,,,,,s,1.0,space,0.5203,0.0,0.0,0.0,0.0,1.0,1.7069,h,2.0887,,
630386f64c5bbd56ab1c3b0f,,,,,,,,,NAN,,NAN,,0.0,14.0,14.0,14.0,1.0,15.0,Alex,Acc,Participant_Images/630386f64c5bbd56ab1c3b0f/630386f64c5bbd56ab1c3b0f_Images/630386f64c5bbd56ab1c3b0f_Image_26.jpeg,liked,2.642157193,,,,,,,,,,,,,,
630386f64c5bbd56ab1c3b0f,,,,,,,space,0.053,NAN,,NAN,,0.0,15.0,15.0,15.0,1.0,16.0,Alex,Acc,Participant_Images/630386f64c5bbd56ab1c3b0f/630386f64c5bbd56ab1c3b0f_Images/630386f64c5bbd56ab1c3b0f_Image_10.jpeg,liked,4.456234322,,,,,,,,,,,,,,
630386f64c5bbd56ab1c3b0f,,,,,,,space,0.0917,NAN,,NAN,,0.0,16.0,16.0,16.0,1.0,17.0,Alex,Acc,Participant_Images/630386f64c5bbd56ab1c3b0f/630386f64c5bbd56ab1c3b0f_Images/630386f64c5bbd56ab1c3b0f_Image_8.jpeg,did not like,4.438512181,,,,,,,,,,,,,,
630386f64c5bbd56ab1c3b0f,,,,,,,space,0.8531,NAN,,NAN,,0.0,17.0,17.0,17.0,1.0,18.0,Alex,Acc,Participant_Images/630386f64c5bbd56ab1c3b0f/630386f64c5bbd56ab1c3b0f_Images/630386f64c5bbd56ab1c3b0f_Image_1.jpeg,liked,2.682944783,,,,,,,,,,,,,,
630386f64c5bbd56ab1c3b0f,,,,,,,space,2.0295,NAN,,NAN,,0.0,18.0,18.0,18.0,1.0,19.0,Alex,Acc,Participant_Images/630386f64c5bbd56ab1c3b0f/630386f64c5bbd56ab1c3b0f_Images/630386f64c5bbd56ab1c3b0f_Image_16.jpeg,liked,4.51984296,,,,,,,,,,,,,,
630386f64c5bbd56ab1c3b0f,,,,,,,,,,,,,,,,,,,,,,,,s,1.0,space,1.1707,0.0,0.0,0.0,0.0,1.0,2.4598,h,1.515,,
630386f64c5bbd56ab1c3b0f,,,,,,,,,NAN,,NAN,,0.0,19.0,19.0,19.0,1.0,20.0,Alex,Acc,Participant_Images/630386f64c5bbd56ab1c3b0f/630386f64c5bbd56ab1c3b0f_Images/630386f64c5bbd56ab1c3b0f_Image_9.jpeg,liked,3.195382774,,,,,,,,,,,,,,
630386f64c5bbd56ab1c3b0f,,,,,,,space,0.4698,NAN,,NAN,,0.0,20.0,20.0,20.0,1.0,21.0,Alex,Acc,Participant_Images/630386f64c5bbd56ab1c3b0f/630386f64c5bbd56ab1c3b0f_Images/630386f64c5bbd56ab1c3b0f_Image_17.jpeg,liked,1.779333479,,,,,,,,,,,,,,
630386f64c5bbd56ab1c3b0f,,,,,,,space,0.6036,NAN,,NAN,,0.0,21.0,21.0,21.0,1.0,22.0,Alex,Acc,Participant_Images/630386f64c5bbd56ab1c3b0f/630386f64c5bbd56ab1c3b0f_Images/630386f64c5bbd56ab1c3b0f_Image_28.jpeg,liked,4.312468682,,,,,,,,,,,,,,
630386f64c5bbd56ab1c3b0f,,,,,,,space,0.5917,NAN,,NAN,,0.0,22.0,22.0,22.0,1.0,23.0,Alex,Acc,Participant_Images/630386f64c5bbd56ab1c3b0f/630386f64c5bbd56ab1c3b0f_Images/630386f64c5bbd56ab1c3b0f_Image_13.jpeg,did not like,4.940433059,,,,,,,,,,,,,,
630386f64c5bbd56ab1c3b0f,,,,,,,space,0.88,NAN,,NAN,,0.0,23.0,23.0,23.0,1.0,24.0,Alex,Acc,Participant_Images/630386f64c5bbd56ab1c3b0f/630386f64c5bbd56ab1c3b0f_Images/630386f64c5bbd56ab1c3b0f_Image_2.jpeg,liked,2.7105123,,,,,,,,,,,,,,
630386f64c5bbd56ab1c3b0f,,,,,,,,,,,,,,,,,,,,,,,,s,1.0,space,1.2032,0.0,0.0,0.0,0.0,1.0,1.8568,h,1.2414,,
630386f64c5bbd56ab1c3b0f,,,,,,,,,NAN,,NAN,,0.0,24.0,24.0,24.0,1.0,25.0,Alex,Acc,Participant_Images/630386f64c5bbd56ab1c3b0f/630386f64c5bbd56ab1c3b0f_Images/630386f64c5bbd56ab1c3b0f_Image_22.jpeg,liked,3.602308302,,,,,,,,,,,,,,
630386f64c5bbd56ab1c3b0f,,,,,,,space,2.3236,NAN,,NAN,,0.0,25.0,25.0,25.0,1.0,26.0,Alex,Acc,Participant_Images/630386f64c5bbd56ab1c3b0f/630386f64c5bbd56ab1c3b0f_Images/630386f64c5bbd56ab1c3b0f_Image_23.jpeg,liked,4.106391878,,,,,,,,,,,,,,
630386f64c5bbd56ab1c3b0f,,,,,,,space,3.6011,NAN,,NAN,,0.0,26.0,26.0,26.0,1.0,27.0,Alex,Acc,Participant_Images/630386f64c5bbd56ab1c3b0f/630386f64c5bbd56ab1c3b0f_Images/630386f64c5bbd56ab1c3b0f_Image_14.jpeg,liked,3.799433026,,,,,,,,,,,,,,
630386f64c5bbd56ab1c3b0f,,,,,,,space,1.8069,NAN,,NAN,,0.0,27.0,27.0,27.0,1.0,28.0,Alex,Acc,Participant_Images/630386f64c5bbd56ab1c3b0f/630386f64c5bbd56ab1c3b0f_Images/630386f64c5bbd56ab1c3b0f_Image_30.jpeg,liked,5.246980764,,,,,,,,,,,,,,
630386f64c5bbd56ab1c3b0f,,,,,,,space,1.0433,NAN,,NAN,,0.0,28.0,28.0,28.0,1.0,29.0,Alex,Acc,Participant_Images/630386f64c5bbd56ab1c3b0f/630386f64c5bbd56ab1c3b0f_Images/630386f64c5bbd56ab1c3b0f_Image_12.jpeg,liked,3.30081769,,,,,,,,,,,,,,
630386f64c5bbd56ab1c3b0f,,,,,,,,,,,,,,,,,,,,,,,,s,1.0,space,0.659,0.0,0.0,0.0,0.0,1.0,1.2413,h,0.7932,,
630386f64c5bbd56ab1c3b0f,,,,,,,,,3,,7,,0.0,29.0,29.0,29.0,1.0,30.0,Alex,Acc,Participant_Images/630386f64c5bbd56ab1c3b0f/630386f64c5bbd56ab1c3b0f_Images/630386f64c5bbd56ab1c3b0f_Image_21.jpeg,liked,1.661473164,,,,,,,,,,,,,,
630386f64c5bbd56ab1c3b0f,,,,,space,1.6489,space,0.7088,NAN,,NAN,,0.0,30.0,30.0,30.0,1.0,31.0,Riley,Acc,Participant_Images/630386f64c5bbd56ab1c3b0f/630386f64c5bbd56ab1c3b0f_Images/630386f64c5bbd56ab1c3b0f_Image_2.jpeg,liked,3.613205605,,,,,,,,,,,,,,
630386f64c5bbd56ab1c3b0f,,,,,,,space,2.5071,NAN,,NAN,,0.0,31.0,31.0,31.0,1.0,32.0,Riley,Acc,Participant_Images/630386f64c5bbd56ab1c3b0f/630386f64c5bbd56ab1c3b0f_Images/630386f64c5bbd56ab1c3b0f_Image_26.jpeg,liked,4.988446431,,,,,,,,,,,,,,
630386f64c5bbd56ab1c3b0f,,,,,,,space,0.7728,NAN,,NAN,,0.0,32.0,32.0,32.0,1.0,33.0,Riley,Acc,Participant_Images/630386f64c5bbd56ab1c3b0f/630386f64c5bbd56ab1c3b0f_Images/630386f64c5bbd56ab1c3b0f_Image_9.jpeg,liked,3.470791822,,,,,,,,,,,,,,
630386f64c5bbd56ab1c3b0f,,,,,,,space,2.2228,NAN,,NAN,,0.0,33.0,33.0,33.0,1.0,34.0,Riley,Acc,Participant_Images/630386f64c5bbd56ab1c3b0f/630386f64c5bbd56ab1c3b0f_Images/630386f64c5bbd56ab1c3b0f_Image_29.jpeg,liked,3.820572462,,,,,,,,,,,,,,
630386f64c5bbd56ab1c3b0f,,,,,,,,,,,,,,,,,,,,,,,,s,1.0,space,1.1209,0.0,0.0,0.0,0.0,1.0,1.3703,h,0.5522,,
630386f64c5bbd56ab1c3b0f,,,,,,,,,NAN,,NAN,,0.0,34.0,34.0,34.0,1.0,35.0,Riley,Acc,Participant_Images/630386f64c5bbd56ab1c3b0f/630386f64c5bbd56ab1c3b0f_Images/630386f64c5bbd56ab1c3b0f_Image_24.jpeg,liked,2.455989137,,,,,,,,,,,,,,
630386f64c5bbd56ab1c3b0f,,,,,,,space,0.8759,NAN,,NAN,,0.0,35.0,35.0,35.0,1.0,36.0,Riley,Acc,Participant_Images/630386f64c5bbd56ab1c3b0f/630386f64c5bbd56ab1c3b0f_Images/630386f64c5bbd56ab1c3b0f_Image_23.jpeg,liked,3.79605092,,,,,,,,,,,,,,
630386f64c5bbd56ab1c3b0f,,,,,,,space,2.0614,NAN,,NAN,,0.0,36.0,36.0,36.0,1.0,37.0,Riley,Acc,Participant_Images/630386f64c5bbd56ab1c3b0f/630386f64c5bbd56ab1c3b0f_Images/630386f64c5bbd56ab1c3b0f_Image_27.jpeg,liked,3.562416326,,,,,,,,,,,,,,
630386f64c5bbd56ab1c3b0f,,,,,,,space,2.9792,NAN,,NAN,,0.0,37.0,37.0,37.0,1.0,38.0,Riley,Acc,Participant_Images/630386f64c5bbd56ab1c3b0f/630386f64c5bbd56ab1c3b0f_Images/630386f64c5bbd56ab1c3b0f_Image_21.jpeg,did not like,2.843822497,,,,,,,,,,,,,,
630386f64c5bbd56ab1c3b0f,,,,,,,space,0.525,NAN,,NAN,,0.0,38.0,38.0,38.0,1.0,39.0,Riley,Acc,Participant_Images/630386f64c5bbd56ab1c3b0f/630386f64c5bbd56ab1c3b0f_Images/630386f64c5bbd56ab1c3b0f_Image_16.jpeg,liked,3.546495948,,,,,,,,,,,,,,
630386f64c5bbd56ab1c3b0f,,,,,,,,,,,,,,,,,,,,,,,,s,1.0,space,0.8551,0.0,0.0,0.0,0.0,1.0,1.8025,h,0.5847,,
630386f64c5bbd56ab1c3b0f,,,,,,,,,NAN,,NAN,,0.0,39.0,39.0,39.0,1.0,40.0,Riley,Acc,Participant_Images/630386f64c5bbd56ab1c3b0f/630386f64c5bbd56ab1c3b0f_Images/630386f64c5bbd56ab1c3b0f_Image_18.jpeg,liked,1.672012706,,,,,,,,,,,,,,
630386f64c5bbd56ab1c3b0f,,,,,,,space,2.8256,NAN,,NAN,,0.0,40.0,40.0,40.0,1.0,41.0,Riley,Acc,Participant_Images/630386f64c5bbd56ab1c3b0f/630386f64c5bbd56ab1c3b0f_Images/630386f64c5bbd56ab1c3b0f_Image_20.jpeg,did not like,4.942172136,,,,,,,,,,,,,,
630386f64c5bbd56ab1c3b0f,,,,,,,space,0.2344,NAN,,NAN,,0.0,41.0,41.0,41.0,1.0,42.0,Riley,Acc,Participant_Images/630386f64c5bbd56ab1c3b0f/630386f64c5bbd56ab1c3b0f_Images/630386f64c5bbd56ab1c3b0f_Image_10.jpeg,liked,2.50187214,,,,,,,,,,,,,,
630386f64c5bbd56ab1c3b0f,,,,,,,space,1.9515,NAN,,NAN,,0.0,42.0,42.0,42.0,1.0,43.0,Riley,Acc,Participant_Images/630386f64c5bbd56ab1c3b0f/630386f64c5bbd56ab1c3b0f_Images/630386f64c5bbd56ab1c3b0f_Image_15.jpeg,did not like,2.071164779,,,,,,,,,,,,,,
630386f64c5bbd56ab1c3b0f,,,,,,,space,2.8599,NAN,,NAN,,0.0,43.0,43.0,43.0,1.0,44.0,Riley,Acc,Participant_Images/630386f64c5bbd56ab1c3b0f/630386f64c5bbd56ab1c3b0f_Images/630386f64c5bbd56ab1c3b0f_Image_8.jpeg,did not like,5.336503566,,,,,,,,,,,,,,
630386f64c5bbd56ab1c3b0f,,,,,,,,,,,,,,,,,,,,,,,,s,1.0,space,2.0732,0.0,0.0,0.0,0.0,1.0,3.7797,h,1.1201,,
630386f64c5bbd56ab1c3b0f,,,,,,,,,NAN,,NAN,,0.0,44.0,44.0,44.0,1.0,45.0,Riley,Acc,Participant_Images/630386f64c5bbd56ab1c3b0f/630386f64c5bbd56ab1c3b0f_Images/630386f64c5bbd56ab1c3b0f_Image_22.jpeg,did not like,2.642157193,,,,,,,,,,,,,,
630386f64c5bbd56ab1c3b0f,,,,,,,space,1.6564,NAN,,NAN,,0.0,45.0,45.0,45.0,1.0,46.0,Riley,Acc,Participant_Images/630386f64c5bbd56ab1c3b0f/630386f64c5bbd56ab1c3b0f_Images/630386f64c5bbd56ab1c3b0f_Image_14.jpeg,liked,4.456234322,,,,,,,,,,,,,,
630386f64c5bbd56ab1c3b0f,,,,,,,space,2.18,NAN,,NAN,,0.0,46.0,46.0,46.0,1.0,47.0,Riley,Acc,Participant_Images/630386f64c5bbd56ab1c3b0f/630386f64c5bbd56ab1c3b0f_Images/630386f64c5bbd56ab1c3b0f_Image_12.jpeg,liked,4.438512181,,,,,,,,,,,,,,
630386f64c5bbd56ab1c3b0f,,,,,,,space,0.8095,NAN,,NAN,,0.0,47.0,47.0,47.0,1.0,48.0,Riley,Acc,Participant_Images/630386f64c5bbd56ab1c3b0f/630386f64c5bbd56ab1c3b0f_Images/630386f64c5bbd56ab1c3b0f_Image_4.jpeg,did not like,2.682944783,,,,,,,,,,,,,,
630386f64c5bbd56ab1c3b0f,,,,,,,space,0.5571,NAN,,NAN,,0.0,48.0,48.0,48.0,1.0,49.0,Riley,Acc,Participant_Images/630386f64c5bbd56ab1c3b0f/630386f64c5bbd56ab1c3b0f_Images/630386f64c5bbd56ab1c3b0f_Image_6.jpeg,liked,4.51984296,,,,,,,,,,,,,,
630386f64c5bbd56ab1c3b0f,,,,,,,,,,,,,,,,,,,,,,,,s,1.0,space,1.3616,0.0,0.0,0.0,0.0,1.0,2.1616,h,0.9904,,
630386f64c5bbd56ab1c3b0f,,,,,,,,,NAN,,NAN,,0.0,49.0,49.0,49.0,1.0,50.0,Riley,Acc,Participant_Images/630386f64c5bbd56ab1c3b0f/630386f64c5bbd56ab1c3b0f_Images/630386f64c5bbd56ab1c3b0f_Image_28.jpeg,liked,3.195382774,,,,,,,,,,,,,,
630386f64c5bbd56ab1c3b0f,,,,,,,space,0.3891,NAN,,NAN,,0.0,50.0,50.0,50.0,1.0,51.0,Riley,Acc,Participant_Images/630386f64c5bbd56ab1c3b0f/630386f64c5bbd56ab1c3b0f_Images/630386f64c5bbd56ab1c3b0f_Image_5.jpeg,liked,1.779333479,,,,,,,,,,,,,,
630386f64c5bbd56ab1c3b0f,,,,,,,space,0.2692,NAN,,NAN,,0.0,51.0,51.0,51.0,1.0,52.0,Riley,Acc,Participant_Images/630386f64c5bbd56ab1c3b0f/630386f64c5bbd56ab1c3b0f_Images/630386f64c5bbd56ab1c3b0f_Image_3.jpeg,did not like,4.312468682,,,,,,,,,,,,,,
630386f64c5bbd56ab1c3b0f,,,,,,,space,0.3208,NAN,,NAN,,0.0,52.0,52.0,52.0,1.0,53.0,Riley,Acc,Participant_Images/630386f64c5bbd56ab1c3b0f/630386f64c5bbd56ab1c3b0f_Images/630386f64c5bbd56ab1c3b0f_Image_11.jpeg,liked,4.940433059,,,,,,,,,,,,,,
630386f64c5bbd56ab1c3b0f,,,,,,,space,0.6416,NAN,,NAN,,0.0,53.0,53.0,53.0,1.0,54.0,Riley,Acc,Participant_Images/630386f64c5bbd56ab1c3b0f/630386f64c5bbd56ab1c3b0f_Images/630386f64c5bbd56ab1c3b0f_Image_30.jpeg,did not like,2.7105123,,,,,,,,,,,,,,
630386f64c5bbd56ab1c3b0f,,,,,,,,,,,,,,,,,,,,,,,,s,1.0,space,4.919,0.0,0.0,0.0,0.0,1.0,1.1968,h,0.2752,,
630386f64c5bbd56ab1c3b0f,,,,,,,,,NAN,,NAN,,0.0,54.0,54.0,54.0,1.0,55.0,Riley,Acc,Participant_Images/630386f64c5bbd56ab1c3b0f/630386f64c5bbd56ab1c3b0f_Images/630386f64c5bbd56ab1c3b0f_Image_17.jpeg,liked,3.602308302,,,,,,,,,,,,,,
630386f64c5bbd56ab1c3b0f,,,,,,,space,1.1262,NAN,,NAN,,0.0,55.0,55.0,55.0,1.0,56.0,Riley,Acc,Participant_Images/630386f64c5bbd56ab1c3b0f/630386f64c5bbd56ab1c3b0f_Images/630386f64c5bbd56ab1c3b0f_Image_7.jpeg,liked,4.106391878,,,,,,,,,,,,,,
630386f64c5bbd56ab1c3b0f,,,,,,,space,0.7259,NAN,,NAN,,0.0,56.0,56.0,56.0,1.0,57.0,Riley,Acc,Participant_Images/630386f64c5bbd56ab1c3b0f/630386f64c5bbd56ab1c3b0f_Images/630386f64c5bbd56ab1c3b0f_Image_13.jpeg,liked,3.799433026,,,,,,,,,,,,,,
630386f64c5bbd56ab1c3b0f,,,,,,,space,0.8693,NAN,,NAN,,0.0,57.0,57.0,57.0,1.0,58.0,Riley,Acc,Participant_Images/630386f64c5bbd56ab1c3b0f/630386f64c5bbd56ab1c3b0f_Images/630386f64c5bbd56ab1c3b0f_Image_1.jpeg,did not like,5.246980764,,,,,,,,,,,,,,
630386f64c5bbd56ab1c3b0f,,,,,,,space,1.306,NAN,,NAN,,0.0,58.0,58.0,58.0,1.0,59.0,Riley,Acc,Participant_Images/630386f64c5bbd56ab1c3b0f/630386f64c5bbd56ab1c3b0f_Images/630386f64c5bbd56ab1c3b0f_Image_25.jpeg,liked,3.30081769,,,,,,,,,,,,,,
630386f64c5bbd56ab1c3b0f,,,,,,,,,,,,,,,,,,,,,,,,s,1.0,space,1.1402,0.0,0.0,0.0,0.0,1.0,2.1102,h,0.5042,,
630386f64c5bbd56ab1c3b0f,,,,,,,,,3,,9,,0.0,59.0,59.0,59.0,1.0,60.0,Riley,Acc,Participant_Images/630386f64c5bbd56ab1c3b0f/630386f64c5bbd56ab1c3b0f_Images/630386f64c5bbd56ab1c3b0f_Image_19.jpeg,liked,1.661473164,,,,,,,,,,,,,,
630386f64c5bbd56ab1c3b0f,,,,,space,8.2626,space,0.5091,NAN,,NAN,,0.0,60.0,60.0,60.0,1.0,61.0,Charlie,Rej,Participant_Images/630386f64c5bbd56ab1c3b0f/630386f64c5bbd56ab1c3b0f_Images/630386f64c5bbd56ab1c3b0f_Image_1.jpeg,did not like,3.613205605,,,,,,,,,,,,,,
630386f64c5bbd56ab1c3b0f,,,,,,,space,0.6355,NAN,,NAN,,0.0,61.0,61.0,61.0,1.0,62.0,Charlie,Rej,Participant_Images/630386f64c5bbd56ab1c3b0f/630386f64c5bbd56ab1c3b0f_Images/630386f64c5bbd56ab1c3b0f_Image_25.jpeg,did not like,4.988446431,,,,,,,,,,,,,,
630386f64c5bbd56ab1c3b0f,,,,,,,space,0.2861,NAN,,NAN,,0.0,62.0,62.0,62.0,1.0,63.0,Charlie,Rej,Participant_Images/630386f64c5bbd56ab1c3b0f/630386f64c5bbd56ab1c3b0f_Images/630386f64c5bbd56ab1c3b0f_Image_28.jpeg,liked,3.470791822,,,,,,,,,,,,,,
630386f64c5bbd56ab1c3b0f,,,,,,,space,1.0623,NAN,,NAN,,0.0,63.0,63.0,63.0,1.0,64.0,Charlie,Rej,Participant_Images/630386f64c5bbd56ab1c3b0f/630386f64c5bbd56ab1c3b0f_Images/630386f64c5bbd56ab1c3b0f_Image_26.jpeg,liked,3.820572462,,,,,,,,,,,,,,
630386f64c5bbd56ab1c3b0f,,,,,,,,,,,,,,,,,,,,,,,,s,1.0,space,1.738,0.0,0.0,0.0,0.0,1.0,2.2383,h,1.6929,,
630386f64c5bbd56ab1c3b0f,,,,,,,,,NAN,,NAN,,0.0,64.0,64.0,64.0,1.0,65.0,Charlie,Rej,Participant_Images/630386f64c5bbd56ab1c3b0f/630386f64c5bbd56ab1c3b0f_Images/630386f64c5bbd56ab1c3b0f_Image_4.jpeg,did not like,2.455989137,,,,,,,,,,,,,,
630386f64c5bbd56ab1c3b0f,,,,,,,space,1.0105,NAN,,NAN,,0.0,65.0,65.0,65.0,1.0,66.0,Charlie,Rej,Participant_Images/630386f64c5bbd56ab1c3b0f/630386f64c5bbd56ab1c3b0f_Images/630386f64c5bbd56ab1c3b0f_Image_10.jpeg,did not like,3.79605092,,,,,,,,,,,,,,
630386f64c5bbd56ab1c3b0f,,,,,,,space,0.3127,NAN,,NAN,,0.0,66.0,66.0,66.0,1.0,67.0,Charlie,Rej,Participant_Images/630386f64c5bbd56ab1c3b0f/630386f64c5bbd56ab1c3b0f_Images/630386f64c5bbd56ab1c3b0f_Image_13.jpeg,did not like,3.562416326,,,,,,,,,,,,,,
630386f64c5bbd56ab1c3b0f,,,,,,,space,3.3257,NAN,,NAN,,0.0,67.0,67.0,67.0,1.0,68.0,Charlie,Rej,Participant_Images/630386f64c5bbd56ab1c3b0f/630386f64c5bbd56ab1c3b0f_Images/630386f64c5bbd56ab1c3b0f_Image_2.jpeg,did not like,2.843822497,,,,,,,,,,,,,,
630386f64c5bbd56ab1c3b0f,,,,,,,space,0.1418,NAN,,NAN,,0.0,68.0,68.0,68.0,1.0,69.0,Charlie,Rej,Participant_Images/630386f64c5bbd56ab1c3b0f/630386f64c5bbd56ab1c3b0f_Images/630386f64c5bbd56ab1c3b0f_Image_22.jpeg,did not like,3.546495948,,,,,,,,,,,,,,
630386f64c5bbd56ab1c3b0f,,,,,,,,,,,,,,,,,,,,,,,,s,1.0,space,1.8795,0.0,0.0,0.0,0.0,1.0,2.7645,h,0.4117,,
630386f64c5bbd56ab1c3b0f,,,,,,,,,NAN,,NAN,,0.0,69.0,69.0,69.0,1.0,70.0,Charlie,Rej,Participant_Images/630386f64c5bbd56ab1c3b0f/630386f64c5bbd56ab1c3b0f_Images/630386f64c5bbd56ab1c3b0f_Image_9.jpeg,did not like,1.672012706,,,,,,,,,,,,,,
630386f64c5bbd56ab1c3b0f,,,,,,,space,1.1384,NAN,,NAN,,0.0,70.0,70.0,70.0,1.0,71.0,Charlie,Rej,Participant_Images/630386f64c5bbd56ab1c3b0f/630386f64c5bbd56ab1c3b0f_Images/630386f64c5bbd56ab1c3b0f_Image_16.jpeg,did not like,4.942172136,,,,,,,,,,,,,,
630386f64c5bbd56ab1c3b0f,,,,,,,space,0.7039,NAN,,NAN,,0.0,71.0,71.0,71.0,1.0,72.0,Charlie,Rej,Participant_Images/630386f64c5bbd56ab1c3b0f/630386f64c5bbd56ab1c3b0f_Images/630386f64c5bbd56ab1c3b0f_Image_11.jpeg,did not like,2.50187214,,,,,,,,,,,,,,
630386f64c5bbd56ab1c3b0f,,,,,,,space,2.2404,NAN,,NAN,,0.0,72.0,72.0,72.0,1.0,73.0,Charlie,Rej,Participant_Images/630386f64c5bbd56ab1c3b0f/630386f64c5bbd56ab1c3b0f_Images/630386f64c5bbd56ab1c3b0f_Image_27.jpeg,did not like,2.071164779,,,,,,,,,,,,,,
630386f64c5bbd56ab1c3b0f,,,,,,,space,0.1353,NAN,,NAN,,0.0,73.0,73.0,73.0,1.0,74.0,Charlie,Rej,Participant_Images/630386f64c5bbd56ab1c3b0f/630386f64c5bbd56ab1c3b0f_Images/630386f64c5bbd56ab1c3b0f_Image_12.jpeg,liked,5.336503566,,,,,,,,,,,,,,
630386f64c5bbd56ab1c3b0f,,,,,,,,,,,,,,,,,,,,,,,,s,1.0,space,1.1424,0.0,0.0,0.0,0.0,1.0,1.6601,h,0.5065,,
630386f64c5bbd56ab1c3b0f,,,,,,,,,NAN,,NAN,,0.0,74.0,74.0,74.0,1.0,75.0,Charlie,Rej,Participant_Images/630386f64c5bbd56ab1c3b0f/630386f64c5bbd56ab1c3b0f_Images/630386f64c5bbd56ab1c3b0f_Image_15.jpeg,liked,2.642157193,,,,,,,,,,,,,,
630386f64c5bbd56ab1c3b0f,,,,,,,space,0.6516,NAN,,NAN,,0.0,75.0,75.0,75.0,1.0,76.0,Charlie,Rej,Participant_Images/630386f64c5bbd56ab1c3b0f/630386f64c5bbd56ab1c3b0f_Images/630386f64c5bbd56ab1c3b0f_Image_18.jpeg,did not like,4.456234322,,,,,,,,,,,,,,
630386f64c5bbd56ab1c3b0f,,,,,,,space,0.3901,NAN,,NAN,,0.0,76.0,76.0,76.0,1.0,77.0,Charlie,Rej,Participant_Images/630386f64c5bbd56ab1c3b0f/630386f64c5bbd56ab1c3b0f_Images/630386f64c5bbd56ab1c3b0f_Image_14.jpeg,did not like,4.438512181,,,,,,,,,,,,,,
630386f64c5bbd56ab1c3b0f,,,,,,,space,0.9102,NAN,,NAN,,0.0,77.0,77.0,77.0,1.0,78.0,Charlie,Rej,Participant_Images/630386f64c5bbd56ab1c3b0f/630386f64c5bbd56ab1c3b0f_Images/630386f64c5bbd56ab1c3b0f_Image_23.jpeg,did not like,2.682944783,,,,,,,,,,,,,,
630386f64c5bbd56ab1c3b0f,,,,,,,space,1.6102,NAN,,NAN,,0.0,78.0,78.0,78.0,1.0,79.0,Charlie,Rej,Participant_Images/630386f64c5bbd56ab1c3b0f/630386f64c5bbd56ab1c3b0f_Images/630386f64c5bbd56ab1c3b0f_Image_30.jpeg,liked,4.51984296,,,,,,,,,,,,,,
630386f64c5bbd56ab1c3b0f,,,,,,,,,,,,,,,,,,,,,,,,s,1.0,space,0.9745,0.0,0.0,0.0,0.0,1.0,3.2446,h,0.2981,,
630386f64c5bbd56ab1c3b0f,,,,,,,,,NAN,,NAN,,0.0,79.0,79.0,79.0,1.0,80.0,Charlie,Rej,Participant_Images/630386f64c5bbd56ab1c3b0f/630386f64c5bbd56ab1c3b0f_Images/630386f64c5bbd56ab1c3b0f_Image_5.jpeg,did not like,3.195382774,,,,,,,,,,,,,,
630386f64c5bbd56ab1c3b0f,,,,,,,space,0.7373,NAN,,NAN,,0.0,80.0,80.0,80.0,1.0,81.0,Charlie,Rej,Participant_Images/630386f64c5bbd56ab1c3b0f/630386f64c5bbd56ab1c3b0f_Images/630386f64c5bbd56ab1c3b0f_Image_21.jpeg,liked,1.779333479,,,,,,,,,,,,,,
630386f64c5bbd56ab1c3b0f,,,,,,,space,3.4802,NAN,,NAN,,0.0,81.0,81.0,81.0,1.0,82.0,Charlie,Rej,Participant_Images/630386f64c5bbd56ab1c3b0f/630386f64c5bbd56ab1c3b0f_Images/630386f64c5bbd56ab1c3b0f_Image_29.jpeg,did not like,4.312468682,,,,,,,,,,,,,,
630386f64c5bbd56ab1c3b0f,,,,,,,space,0.1195,NAN,,NAN,,0.0,82.0,82.0,82.0,1.0,83.0,Charlie,Rej,Participant_Images/630386f64c5bbd56ab1c3b0f/630386f64c5bbd56ab1c3b0f_Images/630386f64c5bbd56ab1c3b0f_Image_6.jpeg,liked,4.940433059,,,,,,,,,,,,,,
630386f64c5bbd56ab1c3b0f,,,,,,,space,0.5076,NAN,,NAN,,0.0,83.0,83.0,83.0,1.0,84.0,Charlie,Rej,Participant_Images/630386f64c5bbd56ab1c3b0f/630386f64c5bbd56ab1c3b0f_Images/630386f64c5bbd56ab1c3b0f_Image_8.jpeg,did not like,2.7105123,,,,,,,,,,,,,,
630386f64c5bbd56ab1c3b0f,,,,,,,,,,,,,,,,,,,,,,,,s,1.0,space,1.2604,0.0,0.0,0.0,0.0,1.0,1.8836,h,0.4236,,
630386f64c5bbd56ab1c3b0f,,,,,,,,,NAN,,NAN,,0.0,84.0,84.0,84.0,1.0,85.0,Charlie,Rej,Participant_Images/630386f64c5bbd56ab1c3b0f/630386f64c5bbd56ab1c3b0f_Images/630386f64c5bbd56ab1c3b0f_Image_3.jpeg,did not like,3.602308302,,,,,,,,,,,,,,
630386f64c5bbd56ab1c3b0f,,,,,,,space,1.7421,NAN,,NAN,,0.0,85.0,85.0,85.0,1.0,86.0,Charlie,Rej,Participant_Images/630386f64c5bbd56ab1c3b0f/630386f64c5bbd56ab1c3b0f_Images/630386f64c5bbd56ab1c3b0f_Image_20.jpeg,did not like,4.106391878,,,,,,,,,,,,,,
630386f64c5bbd56ab1c3b0f,,,,,,,space,0.0607,NAN,,NAN,,0.0,86.0,86.0,86.0,1.0,87.0,Charlie,Rej,Participant_Images/630386f64c5bbd56ab1c3b0f/630386f64c5bbd56ab1c3b0f_Images/630386f64c5bbd56ab1c3b0f_Image_19.jpeg,liked,3.799433026,,,,,,,,,,,,,,
630386f64c5bbd56ab1c3b0f,,,,,,,space,2.7565,NAN,,NAN,,0.0,87.0,87.0,87.0,1.0,88.0,Charlie,Rej,Participant_Images/630386f64c5bbd56ab1c3b0f/630386f64c5bbd56ab1c3b0f_Images/630386f64c5bbd56ab1c3b0f_Image_7.jpeg,did not like,5.246980764,,,,,,,,,,,,,,
630386f64c5bbd56ab1c3b0f,,,,,,,space,0.6088,NAN,,NAN,,0.0,88.0,88.0,88.0,1.0,89.0,Charlie,Rej,Participant_Images/630386f64c5bbd56ab1c3b0f/630386f64c5bbd56ab1c3b0f_Images/630386f64c5bbd56ab1c3b0f_Image_17.jpeg,did not like,3.30081769,,,,,,,,,,,,,,
630386f64c5bbd56ab1c3b0f,,,,,,,,,,,,,,,,,,,,,,,,s,1.0,space,1.9842,0.0,0.0,0.0,0.0,1.0,2.4454,h,0.9277,,
630386f64c5bbd56ab1c3b0f,,,,,,,,,3,,9,,0.0,89.0,89.0,89.0,1.0,90.0,Charlie,Rej,Participant_Images/630386f64c5bbd56ab1c3b0f/630386f64c5bbd56ab1c3b0f_Images/630386f64c5bbd56ab1c3b0f_Image_24.jpeg,liked,1.661473164,,,,,,,,,,,,,,
630386f64c5bbd56ab1c3b0f,,,,,space,2.1319,space,1.7984,NAN,,NAN,,0.0,90.0,90.0,90.0,1.0,91.0,Taylor,Rej,Participant_Images/630386f64c5bbd56ab1c3b0f/630386f64c5bbd56ab1c3b0f_Images/630386f64c5bbd56ab1c3b0f_Image_1.jpeg,liked,3.613205605,,,,,,,,,,,,,,
630386f64c5bbd56ab1c3b0f,,,,,,,space,0.5044,NAN,,NAN,,0.0,91.0,91.0,91.0,1.0,92.0,Taylor,Rej,Participant_Images/630386f64c5bbd56ab1c3b0f/630386f64c5bbd56ab1c3b0f_Images/630386f64c5bbd56ab1c3b0f_Image_21.jpeg,liked,4.988446431,,,,,,,,,,,,,,
630386f64c5bbd56ab1c3b0f,,,,,,,space,0.7208,NAN,,NAN,,0.0,92.0,92.0,92.0,1.0,93.0,Taylor,Rej,Participant_Images/630386f64c5bbd56ab1c3b0f/630386f64c5bbd56ab1c3b0f_Images/630386f64c5bbd56ab1c3b0f_Image_15.jpeg,did not like,3.470791822,,,,,,,,,,,,,,
630386f64c5bbd56ab1c3b0f,,,,,,,space,1.6096,NAN,,NAN,,0.0,93.0,93.0,93.0,1.0,94.0,Taylor,Rej,Participant_Images/630386f64c5bbd56ab1c3b0f/630386f64c5bbd56ab1c3b0f_Images/630386f64c5bbd56ab1c3b0f_Image_7.jpeg,liked,3.820572462,,,,,,,,,,,,,,
630386f64c5bbd56ab1c3b0f,,,,,,,,,,,,,,,,,,,,,,,,s,1.0,space,1.7685,0.0,0.0,0.0,0.0,1.0,2.4139,h,0.4466,,
630386f64c5bbd56ab1c3b0f,,,,,,,,,NAN,,NAN,,0.0,94.0,94.0,94.0,1.0,95.0,Taylor,Rej,Participant_Images/630386f64c5bbd56ab1c3b0f/630386f64c5bbd56ab1c3b0f_Images/630386f64c5bbd56ab1c3b0f_Image_30.jpeg,did not like,2.455989137,,,,,,,,,,,,,,
630386f64c5bbd56ab1c3b0f,,,,,,,space,0.0534,NAN,,NAN,,0.0,95.0,95.0,95.0,1.0,96.0,Taylor,Rej,Participant_Images/630386f64c5bbd56ab1c3b0f/630386f64c5bbd56ab1c3b0f_Images/630386f64c5bbd56ab1c3b0f_Image_12.jpeg,did not like,3.79605092,,,,,,,,,,,,,,
630386f64c5bbd56ab1c3b0f,,,,,,,space,0.2234,NAN,,NAN,,0.0,96.0,96.0,96.0,1.0,97.0,Taylor,Rej,Participant_Images/630386f64c5bbd56ab1c3b0f/630386f64c5bbd56ab1c3b0f_Images/630386f64c5bbd56ab1c3b0f_Image_23.jpeg,liked,3.562416326,,,,,,,,,,,,,,
630386f64c5bbd56ab1c3b0f,,,,,,,space,0.0072,NAN,,NAN,,0.0,97.0,97.0,97.0,1.0,98.0,Taylor,Rej,Participant_Images/630386f64c5bbd56ab1c3b0f/630386f64c5bbd56ab1c3b0f_Images/630386f64c5bbd56ab1c3b0f_Image_17.jpeg,did not like,2.843822497,,,,,,,,,,,,,,
630386f64c5bbd56ab1c3b0f,,,,,,,space,1.0584,NAN,,NAN,,0.0,98.0,98.0,98.0,1.0,99.0,Taylor,Rej,Participant_Images/630386f64c5bbd56ab1c3b0f/630386f64c5bbd56ab1c3b0f_Images/630386f64c5bbd56ab1c3b0f_Image_24.jpeg,did not like,3.546495948,,,,,,,,,,,,,,
630386f64c5bbd56ab1c3b0f,,,,,,,,,,,,,,,,,,,,,,,,s,1.0,space,0.7225,0.0,0.0,0.0,0.0,1.0,1.8696,h,0.8029,,
630386f64c5bbd56ab1c3b0f,,,,,,,,,NAN,,NAN,,0.0,99.0,99.0,99.0,1.0,100.0,Taylor,Rej,Participant_Images/630386f64c5bbd56ab1c3b0f/630386f64c5bbd56ab1c3b0f_Images/630386f64c5bbd56ab1c3b0f_Image_16.jpeg,liked,1.672012706,,,,,,,,,,,,,,
630386f64c5bbd56ab1c3b0f,,,,,,,space,0.9372,NAN,,NAN,,0.0,100.0,100.0,100.0,1.0,101.0,Taylor,Rej,Participant_Images/630386f64c5bbd56ab1c3b0f/630386f64c5bbd56ab1c3b0f_Images/630386f64c5bbd56ab1c3b0f_Image_14.jpeg,did not like,4.942172136,,,,,,,,,,,,,,
630386f64c5bbd56ab1c3b0f,,,,,,,space,0.9367,NAN,,NAN,,0.0,101.0,101.0,101.0,1.0,102.0,Taylor,Rej,Participant_Images/630386f64c5bbd56ab1c3b0f/630386f64c5bbd56ab1c3b0f_Images/630386f64c5bbd56ab1c3b0f_Image_3.jpeg,did not like,2.50187214,,,,,,,,,,,,,,
630386f64c5bbd56ab1c3b0f,,,,,,,space,2.2421,NAN,,NAN,,0.0,102.0,102.0,102.0,1.0,103.0,Taylor,Rej,Participant_Images/630386f64c5bbd56ab1c3b0f/630386f64c5bbd56ab1c3b0f_Images/630386f64c5bbd56ab1c3b0f_Image_13.jpeg,did not like,2.071164779,,,,,,,,,,,,,,
630386f64c5bbd56ab1c3b0f,,,,,,,space,0.6417,NAN,,NAN,,0.0,103.0,103.0,103.0,1.0,104.0,Taylor,Rej,Participant_Images/630386f64c5bbd56ab1c3b0f/630386f64c5bbd56ab1c3b0f_Images/630386f64c5bbd56ab1c3b0f_Image_4.jpeg,did not like,5.336503566,,,,,,,,,,,,,,
630386f64c5bbd56ab1c3b0f,,,,,,,,,,,,,,,,,,,,,,,,s,1.0,space,2.0712,0.0,0.0,0.0,0.0,1.0,1.4429,h,0.5424,,
630386f64c5bbd56ab1c3b0f,,,,,,,,,NAN,,NAN,,0.0,104.0,104.0,104.0,1.0,105.0,Taylor,Rej,Participant_Images/630386f64c5bbd56ab1c3b0f/630386f64c5bbd56ab1c3b0f_Images/630386f64c5bbd56ab1c3b0f_Image_25.jpeg,liked,2.642157193,,,,,,,,,,,,,,
630386f64c5bbd56ab1c3b0f,,,,,,,space,0.2203,NAN,,NAN,,0.0,105.0,105.0,105.0,1.0,106.0,Taylor,Rej,Participant_Images/630386f64c5bbd56ab1c3b0f/630386f64c5bbd56ab1c3b0f_Images/630386f64c5bbd56ab1c3b0f_Image_27.jpeg,did not like,4.456234322,,,,,,,,,,,,,,
630386f64c5bbd56ab1c3b0f,,,,,,,space,0.7259,NAN,,NAN,,0.0,106.0,106.0,106.0,1.0,107.0,Taylor,Rej,Participant_Images/630386f64c5bbd56ab1c3b0f/630386f64c5bbd56ab1c3b0f_Images/630386f64c5bbd56ab1c3b0f_Image_26.jpeg,did not like,4.438512181,,,,,,,,,,,,,,
630386f64c5bbd56ab1c3b0f,,,,,,,space,1.1461,NAN,,NAN,,0.0,107.0,107.0,107.0,1.0,108.0,Taylor,Rej,Participant_Images/630386f64c5bbd56ab1c3b0f/630386f64c5bbd56ab1c3b0f_Images/630386f64c5bbd56ab1c3b0f_Image_28.jpeg,did not like,2.682944783,,,,,,,,,,,,,,
630386f64c5bbd56ab1c3b0f,,,,,,,space,0.1059,NAN,,NAN,,0.0,108.0,108.0,108.0,1.0,109.0,Taylor,Rej,Participant_Images/630386f64c5bbd56ab1c3b0f/630386f64c5bbd56ab1c3b0f_Images/630386f64c5bbd56ab1c3b0f_Image_8.jpeg,did not like,4.51984296,,,,,,,,,,,,,,
630386f64c5bbd56ab1c3b0f,,,,,,,,,,,,,,,,,,,,,,,,s,1.0,space,0.5738,0.0,0.0,0.0,0.0,1.0,1.224,h,0.5633,,
630386f64c5bbd56ab1c3b0f,,,,,,,,,NAN,,NAN,,0.0,109.0,109.0,109.0,1.0,110.0,Taylor,Rej,Participant_Images/630386f64c5bbd56ab1c3b0f/630386f64c5bbd56ab1c3b0f_Images/630386f64c5bbd56ab1c3b0f_Image_9.jpeg,did not like,3.195382774,,,,,,,,,,,,,,
630386f64c5bbd56ab1c3b0f,,,,,,,space,1.1038,NAN,,NAN,,0.0,110.0,110.0,110.0,1.0,111.0,Taylor,Rej,Participant_Images/630386f64c5bbd56ab1c3b0f/630386f64c5bbd56ab1c3b0f_Images/630386f64c5bbd56ab1c3b0f_Image_19.jpeg,liked,1.779333479,,,,,,,,,,,,,,
630386f64c5bbd56ab1c3b0f,,,,,,,space,0.243,NAN,,NAN,,0.0,111.0,111.0,111.0,1.0,112.0,Taylor,Rej,Participant_Images/630386f64c5bbd56ab1c3b0f/630386f64c5bbd56ab1c3b0f_Images/630386f64c5bbd56ab1c3b0f_Image_11.jpeg,did not like,4.312468682,,,,,,,,,,,,,,
630386f64c5bbd56ab1c3b0f,,,,,,,space,1.0371,NAN,,NAN,,0.0,112.0,112.0,112.0,1.0,113.0,Taylor,Rej,Participant_Images/630386f64c5bbd56ab1c3b0f/630386f64c5bbd56ab1c3b0f_Images/630386f64c5bbd56ab1c3b0f_Image_2.jpeg,did not like,4.940433059,,,,,,,,,,,,,,
630386f64c5bbd56ab1c3b0f,,,,,,,space,0.0856,NAN,,NAN,,0.0,113.0,113.0,113.0,1.0,114.0,Taylor,Rej,Participant_Images/630386f64c5bbd56ab1c3b0f/630386f64c5bbd56ab1c3b0f_Images/630386f64c5bbd56ab1c3b0f_Image_22.jpeg,did not like,2.7105123,,,,,,,,,,,,,,
630386f64c5bbd56ab1c3b0f,,,,,,,,,,,,,,,,,,,,,,,,s,1.0,space,1.7569,0.0,0.0,0.0,0.0,1.0,1.9096,h,0.8141,,
630386f64c5bbd56ab1c3b0f,,,,,,,,,NAN,,NAN,,0.0,114.0,114.0,114.0,1.0,115.0,Taylor,Rej,Participant_Images/630386f64c5bbd56ab1c3b0f/630386f64c5bbd56ab1c3b0f_Images/630386f64c5bbd56ab1c3b0f_Image_29.jpeg,did not like,3.602308302,,,,,,,,,,,,,,
630386f64c5bbd56ab1c3b0f,,,,,,,space,0.0847,NAN,,NAN,,0.0,115.0,115.0,115.0,1.0,116.0,Taylor,Rej,Participant_Images/630386f64c5bbd56ab1c3b0f/630386f64c5bbd56ab1c3b0f_Images/630386f64c5bbd56ab1c3b0f_Image_18.jpeg,did not like,4.106391878,,,,,,,,,,,,,,
630386f64c5bbd56ab1c3b0f,,,,,,,space,0.0222,NAN,,NAN,,0.0,116.0,116.0,116.0,1.0,117.0,Taylor,Rej,Participant_Images/630386f64c5bbd56ab1c3b0f/630386f64c5bbd56ab1c3b0f_Images/630386f64c5bbd56ab1c3b0f_Image_6.jpeg,did not like,3.799433026,,,,,,,,,,,,,,
630386f64c5bbd56ab1c3b0f,,,,,,,space,0.4342,NAN,,NAN,,0.0,117.0,117.0,117.0,1.0,118.0,Taylor,Rej,Participant_Images/630386f64c5bbd56ab1c3b0f/630386f64c5bbd56ab1c3b0f_Images/630386f64c5bbd56ab1c3b0f_Image_5.jpeg,liked,5.246980764,,,,,,,,,,,,,,
630386f64c5bbd56ab1c3b0f,,,,,,,space,0.2402,NAN,,NAN,,0.0,118.0,118.0,118.0,1.0,119.0,Taylor,Rej,Participant_Images/630386f64c5bbd56ab1c3b0f/630386f64c5bbd56ab1c3b0f_Images/630386f64c5bbd56ab1c3b0f_Image_20.jpeg,did not like,3.30081769,,,,,,,,,,,,,,
630386f64c5bbd56ab1c3b0f,,,,,,,,,,,,,,,,,,,,,,,,s,1.0,space,3.4454,0.0,0.0,0.0,0.0,1.0,1.8411,h,0.502,,
630386f64c5bbd56ab1c3b0f,,,,,,,,,3,,9,,0.0,119.0,119.0,119.0,1.0,120.0,Taylor,Rej,Participant_Images/630386f64c5bbd56ab1c3b0f/630386f64c5bbd56ab1c3b0f_Images/630386f64c5bbd56ab1c3b0f_Image_10.jpeg,liked,1.661473164,,,,,,,,,,,,,,
630386f64c5bbd56ab1c3b0f,,,,,space,2.476,space,0.2228,NAN,,NAN,,0.0,120.0,120.0,120.0,1.0,121.0,Sam,Neutral,Participant_Images/630386f64c5bbd56ab1c3b0f/630386f64c5bbd56ab1c3b0f_Images/630386f64c5bbd56ab1c3b0f_Image_10.jpeg,did not like,3.613205605,,,,,,,,,,,,,,
630386f64c5bbd56ab1c3b0f,,,,,,,space,0.1865,NAN,,NAN,,0.0,121.0,121.0,121.0,1.0,122.0,Sam,Neutral,Participant_Images/630386f64c5bbd56ab1c3b0f/630386f64c5bbd56ab1c3b0f_Images/630386f64c5bbd56ab1c3b0f_Image_9.jpeg,liked,4.988446431,,,,,,,,,,,,,,
630386f64c5bbd56ab1c3b0f,,,,,,,space,0.1347,NAN,,NAN,,0.0,122.0,122.0,122.0,1.0,123.0,Sam,Neutral,Participant_Images/630386f64c5bbd56ab1c3b0f/630386f64c5bbd56ab1c3b0f_Images/630386f64c5bbd56ab1c3b0f_Image_21.jpeg,did not like,3.470791822,,,,,,,,,,,,,,
630386f64c5bbd56ab1c3b0f,,,,,,,space,0.7594,NAN,,NAN,,0.0,123.0,123.0,123.0,1.0,124.0,Sam,Neutral,Participant_Images/630386f64c5bbd56ab1c3b0f/630386f64c5bbd56ab1c3b0f_Images/630386f64c5bbd56ab1c3b0f_Image_15.jpeg,liked,3.820572462,,,,,,,,,,,,,,
630386f64c5bbd56ab1c3b0f,,,,,,,,,,,,,,,,,,,,,,,,s,1.0,space,1.4933,0.0,0.0,0.0,0.0,1.0,3.6073,h,0.586,,
630386f64c5bbd56ab1c3b0f,,,,,,,,,NAN,,NAN,,0.0,124.0,124.0,124.0,1.0,125.0,Sam,Neutral,Participant_Images/630386f64c5bbd56ab1c3b0f/630386f64c5bbd56ab1c3b0f_Images/630386f64c5bbd56ab1c3b0f_Image_16.jpeg,did not like,2.455989137,,,,,,,,,,,,,,
630386f64c5bbd56ab1c3b0f,,,,,,,space,0.827,NAN,,NAN,,0.0,125.0,125.0,125.0,1.0,126.0,Sam,Neutral,Participant_Images/630386f64c5bbd56ab1c3b0f/630386f64c5bbd56ab1c3b0f_Images/630386f64c5bbd56ab1c3b0f_Image_2.jpeg,did not like,3.79605092,,,,,,,,,,,,,,
630386f64c5bbd56ab1c3b0f,,,,,,,space,1.6542,NAN,,NAN,,0.0,126.0,126.0,126.0,1.0,127.0,Sam,Neutral,Participant_Images/630386f64c5bbd56ab1c3b0f/630386f64c5bbd56ab1c3b0f_Images/630386f64c5bbd56ab1c3b0f_Image_8.jpeg,liked,3.562416326,,,,,,,,,,,,,,
630386f64c5bbd56ab1c3b0f,,,,,,,space,0.5042,NAN,,NAN,,0.0,127.0,127.0,127.0,1.0,128.0,Sam,Neutral,Participant_Images/630386f64c5bbd56ab1c3b0f/630386f64c5bbd56ab1c3b0f_Images/630386f64c5bbd56ab1c3b0f_Image_27.jpeg,did not like,2.843822497,,,,,,,,,,,,,,
630386f64c5bbd56ab1c3b0f,,,,,,,space,2.4322,NAN,,NAN,,0.0,128.0,128.0,128.0,1.0,129.0,Sam,Neutral,Participant_Images/630386f64c5bbd56ab1c3b0f/630386f64c5bbd56ab1c3b0f_Images/630386f64c5bbd56ab1c3b0f_Image_6.jpeg,did not like,3.546495948,,,,,,,,,,,,,,
630386f64c5bbd56ab1c3b0f,,,,,,,,,,,,,,,,,,,,,,,,s,1.0,space,3.5461,0.0,0.0,0.0,0.0,1.0,1.2034,h,0.3663,,
630386f64c5bbd56ab1c3b0f,,,,,,,,,NAN,,NAN,,0.0,129.0,129.0,129.0,1.0,130.0,Sam,Neutral,Participant_Images/630386f64c5bbd56ab1c3b0f/630386f64c5bbd56ab1c3b0f_Images/630386f64c5bbd56ab1c3b0f_Image_11.jpeg,did not like,1.672012706,,,,,,,,,,,,,,
630386f64c5bbd56ab1c3b0f,,,,,,,space,0.1509,NAN,,NAN,,0.0,130.0,130.0,130.0,1.0,131.0,Sam,Neutral,Participant_Images/630386f64c5bbd56ab1c3b0f/630386f64c5bbd56ab1c3b0f_Images/630386f64c5bbd56ab1c3b0f_Image_26.jpeg,did not like,4.942172136,,,,,,,,,,,,,,
630386f64c5bbd56ab1c3b0f,,,,,,,space,3.0257,NAN,,NAN,,0.0,131.0,131.0,131.0,1.0,132.0,Sam,Neutral,Participant_Images/630386f64c5bbd56ab1c3b0f/630386f64c5bbd56ab1c3b0f_Images/630386f64c5bbd56ab1c3b0f_Image_7.jpeg,liked,2.50187214,,,,,,,,,,,,,,
630386f64c5bbd56ab1c3b0f,,,,,,,space,2.2102,NAN,,NAN,,0.0,132.0,132.0,132.0,1.0,133.0,Sam,Neutral,Participant_Images/630386f64c5bbd56ab1c3b0f/630386f64c5bbd56ab1c3b0f_Images/630386f64c5bbd56ab1c3b0f_Image_24.jpeg,did not like,2.071164779,,,,,,,,,,,,,,
630386f64c5bbd56ab1c3b0f,,,,,,,space,2.0289,NAN,,NAN,,0.0,133.0,133.0,133.0,1.0,134.0,Sam,Neutral,Participant_Images/630386f64c5bbd56ab1c3b0f/630386f64c5bbd56ab1c3b0f_Images/630386f64c5bbd56ab1c3b0f_Image_28.jpeg,liked,5.336503566,,,,,,,,,,,,,,
630386f64c5bbd56ab1c3b0f,,,,,,,,,,,,,,,,,,,,,,,,s,1.0,space,1.7266,0.0,0.0,0.0,0.0,1.0,0.8334,h,0.5361,,
630386f64c5bbd56ab1c3b0f,,,,,,,,,NAN,,NAN,,0.0,134.0,134.0,134.0,1.0,135.0,Sam,Neutral,Participant_Images/630386f64c5bbd56ab1c3b0f/630386f64c5bbd56ab1c3b0f_Images/630386f64c5bbd56ab1c3b0f_Image_12.jpeg,did not like,2.642157193,,,,,,,,,,,,,,
630386f64c5bbd56ab1c3b0f,,,,,,,space,1.5553,NAN,,NAN,,0.0,135.0,135.0,135.0,1.0,136.0,Sam,Neutral,Participant_Images/630386f64c5bbd56ab1c3b0f/630386f64c5bbd56ab1c3b0f_Images/630386f64c5bbd56ab1c3b0f_Image_13.jpeg,liked,4.456234322,,,,,,,,,,,,,,
630386f64c5bbd56ab1c3b0f,,,,,,,space,0.4797,NAN,,NAN,,0.0,136.0,136.0,136.0,1.0,137.0,Sam,Neutral,Participant_Images/630386f64c5bbd56ab1c3b0f/630386f64c5bbd56ab1c3b0f_Images/630386f64c5bbd56ab1c3b0f_Image_20.jpeg,liked,4.438512181,,,,,,,,,,,,,,
630386f64c5bbd56ab1c3b0f,,,,,,,space,0.4864,NAN,,NAN,,0.0,137.0,137.0,137.0,1.0,138.0,Sam,Neutral,Participant_Images/630386f64c5bbd56ab1c3b0f/630386f64c5bbd56ab1c3b0f_Images/630386f64c5bbd56ab1c3b0f_Image_4.jpeg,did not like,2.682944783,,,,,,,,,,,,,,
630386f64c5bbd56ab1c3b0f,,,,,,,space,1.611,NAN,,NAN,,0.0,138.0,138.0,138.0,1.0,139.0,Sam,Neutral,Participant_Images/630386f64c5bbd56ab1c3b0f/630386f64c5bbd56ab1c3b0f_Images/630386f64c5bbd56ab1c3b0f_Image_1.jpeg,liked,4.51984296,,,,,,,,,,,,,,
630386f64c5bbd56ab1c3b0f,,,,,,,,,,,,,,,,,,,,,,,,,999.0,space,1.8729,0.0,0.0,0.0,0.0,1.0,,,,,
630386f64c5bbd56ab1c3b0f,,,,,,,,,NAN,,NAN,,0.0,139.0,139.0,139.0,1.0,140.0,Sam,Neutral,Participant_Images/630386f64c5bbd56ab1c3b0f/630386f64c5bbd56ab1c3b0f_Images/630386f64c5bbd56ab1c3b0f_Image_3.jpeg,did not like,3.195382774,,,,,,,,,,,,,,
630386f64c5bbd56ab1c3b0f,,,,,,,space,2.0005,NAN,,NAN,,0.0,140.0,140.0,140.0,1.0,141.0,Sam,Neutral,Participant_Images/630386f64c5bbd56ab1c3b0f/630386f64c5bbd56ab1c3b0f_Images/630386f64c5bbd56ab1c3b0f_Image_18.jpeg,did not like,1.779333479,,,,,,,,,,,,,,
630386f64c5bbd56ab1c3b0f,,,,,,,space,0.4079,NAN,,NAN,,0.0,141.0,141.0,141.0,1.0,142.0,Sam,Neutral,Participant_Images/630386f64c5bbd56ab1c3b0f/630386f64c5bbd56ab1c3b0f_Images/630386f64c5bbd56ab1c3b0f_Image_22.jpeg,liked,4.312468682,,,,,,,,,,,,,,
630386f64c5bbd56ab1c3b0f,,,,,,,space,1.3233,NAN,,NAN,,0.0,142.0,142.0,142.0,1.0,143.0,Sam,Neutral,Participant_Images/630386f64c5bbd56ab1c3b0f/630386f64c5bbd56ab1c3b0f_Images/630386f64c5bbd56ab1c3b0f_Image_25.jpeg,did not like,4.940433059,,,,,,,,,,,,,,
630386f64c5bbd56ab1c3b0f,,,,,,,space,2.7108,NAN,,NAN,,0.0,143.0,143.0,143.0,1.0,144.0,Sam,Neutral,Participant_Images/630386f64c5bbd56ab1c3b0f/630386f64c5bbd56ab1c3b0f_Images/630386f64c5bbd56ab1c3b0f_Image_5.jpeg,liked,2.7105123,,,,,,,,,,,,,,
630386f64c5bbd56ab1c3b0f,,,,,,,,,,,,,,,,,,,,,,,,s,1.0,space,1.6192,0.0,0.0,0.0,0.0,1.0,1.1365,h,0.7883,,
630386f64c5bbd56ab1c3b0f,,,,,,,,,NAN,,NAN,,0.0,144.0,144.0,144.0,1.0,145.0,Sam,Neutral,Participant_Images/630386f64c5bbd56ab1c3b0f/630386f64c5bbd56ab1c3b0f_Images/630386f64c5bbd56ab1c3b0f_Image_29.jpeg,did not like,3.602308302,,,,,,,,,,,,,,
630386f64c5bbd56ab1c3b0f,,,,,,,space,0.162,NAN,,NAN,,0.0,145.0,145.0,145.0,1.0,146.0,Sam,Neutral,Participant_Images/630386f64c5bbd56ab1c3b0f/630386f64c5bbd56ab1c3b0f_Images/630386f64c5bbd56ab1c3b0f_Image_30.jpeg,liked,4.106391878,,,,,,,,,,,,,,
630386f64c5bbd56ab1c3b0f,,,,,,,space,2.0969,NAN,,NAN,,0.0,146.0,146.0,146.0,1.0,147.0,Sam,Neutral,Participant_Images/630386f64c5bbd56ab1c3b0f/630386f64c5bbd56ab1c3b0f_Images/630386f64c5bbd56ab1c3b0f_Image_14.jpeg,liked,3.799433026,,,,,,,,,,,,,,
630386f64c5bbd56ab1c3b0f,,,,,,,space,0.9375,NAN,,NAN,,0.0,147.0,147.0,147.0,1.0,148.0,Sam,Neutral,Participant_Images/630386f64c5bbd56ab1c3b0f/630386f64c5bbd56ab1c3b0f_Images/630386f64c5bbd56ab1c3b0f_Image_19.jpeg,liked,5.246980764,,,,,,,,,,,,,,
630386f64c5bbd56ab1c3b0f,,,,,,,space,0.2413,NAN,,NAN,,0.0,148.0,148.0,148.0,1.0,149.0,Sam,Neutral,Participant_Images/630386f64c5bbd56ab1c3b0f/630386f64c5bbd56ab1c3b0f_Images/630386f64c5bbd56ab1c3b0f_Image_17.jpeg,liked,3.30081769,,,,,,,,,,,,,,
630386f64c5bbd56ab1c3b0f,,,,,,,,,,,,,,,,,,,,,,,,s,1.0,space,2.0219,0.0,0.0,0.0,0.0,1.0,3.9137,h,1.4567,,
630386f64c5bbd56ab1c3b0f,,,,,,,,,3,,9,,0.0,149.0,149.0,149.0,1.0,150.0,Sam,Neutral,Participant_Images/630386f64c5bbd56ab1c3b0f/630386f64c5bbd56ab1c3b0f_Images/630386f64c5bbd56ab1c3b0f_Image_23.jpeg,liked,1.661473164,,,,,,,,,,,,,,
630386f64c5bbd56ab1c3b0f,,,,,,,,,,,,,,,,,,,,,,,,,,,,,,,,,,,,space,2.962
