PROLIFIC_ID,endwelcomescreen_keys.keys,endwelcomescreen_keys.rt,endinstructionscreen_keys.keys,endinstructionscreen_keys.rt,endpartnermatch_keys.keys,endpartnermatch_keys.rt,sharenextphoto_key.keys,sharenextphoto_key.rt,salience_rating,key_resp.keys,stress_level,stresslevel_keypress.keys,entiretaskloop.thisRepN,entiretaskloop.thisTrialN,entiretaskloop.thisN,entiretaskloop.thisIndex,entiretaskloop.ran,TrialNumber,Partner,Condition,Photos,Feedback,FeedbackWait,choice_keys.keys,playlottery,resumeafterlottery_keys.keys,resumeafterlottery_keys.rt,lotteryloop.thisRepN,lotteryloop.thisTrialN,lotteryloop.thisN,lotteryloop.thisIndex,lotteryloop.ran,choice_keys.rt,lotteryguess_keys.keys,lotteryguess_keys.rt,end_screen_keys.keys,end_screen_keys.rt
631f3abc8826b6e7e8982648,space,8.1716,,,,,,,,,,,,,,,,,,,,,,,,,,,,,,,,,,,
631f3abc8826b6e7e8982648,,,,,,,,,,,,,,,,,,,,,,,,,,,,,,,,,,,,,
631f3abc8826b6e7e8982648,,,space,10.8205,,,,,,,,,,,,,,,,,,,,,,,,,,,,,,,,,
631f3abc8826b6e7e8982648,,,,,space,3.2486,space,0.8271,NAN,,NAN,,0.0,0.0,0.0,0.0,1.0,1.0,Sam,Rej,Participant_Images/631f3abc8826b6e7e8982648/631f3abc8826b6e7e8982648_Images/631f3abc8826b6e7e8982648_Image_28.jpeg,liked,3.613205605,,,,,,,,,,,,,,
631f3abc8826b6e7e8982648,,,,,,,space,0.5947,NAN,,NAN,,0.0,1.0,1.0,1.0,1.0,2.0,Sam,Rej,Participant_Images/631f3abc8826b6e7e8982648/631f3abc8826b6e7e8982648_Images/631f3abc8826b6e7e8982648_Image_16.jpeg,did not like,4.988446431,,,,,,,,,,,,,,
631f3abc8826b6e7e8982648,,,,,,,space,0.3291,NAN,,NAN,,0.0,2.0,2.0,2.0,1.0,3.0,Sam,Rej,Participant_Images/631f3abc8826b6e7e8982648/631f3abc8826b6e7e8982648_Images/631f3abc8826b6e7e8982648_Image_14.jpeg,did not like,3.470791822,,,,,,,,,,,,,,
631f3abc8826b6e7e8982648,,,,,,,space,3.0003,NAN,,NAN,,0.0,3.0,3.0,3.0,1.0,4.0,Sam,Rej,Participant_Images/631f3abc8826b6e7e8982648/631f3abc8826b6e7e8982648_Images/631f3abc8826b6e7e8982648_Image_19.jpeg,did not like,3.820572462,,,,,,,,,,,,,,
631f3abc8826b6e7e8982648,,,,,,,,,,,,,,,,,,,,,,,,,999.0,space,3.6671,0.0,0.0,0.0,0.0,1.0,,,,,
631f3abc8826b6e7e8982648,,,,,,,,,NAN,,NAN,,0.0,4.0,4.0,4.0,1.0,5.0,Sam,Rej,Participant_Images/631f3abc8826b6e7e8982648/631f3abc8826b6e7e8982648_Images/631f3abc8826b6e7e8982648_Image_25.jpeg,did not like,2.455989137,,,,,,,,,,,,,,
631f3abc8826b6e7e8982648,,,,,,,space,1.0852,NAN,,NAN,,0.0,5.0,5.0,5.0,1.0,6.0,Sam,Rej,Participant_Images/631f3abc8826b6e7e8982648/631f3abc8826b6e7e8982648_Images/631f3abc8826b6e7e8982648_Image_5.jpeg,did not like,3.79605092,,,,,,,,,,,,,,
631f3abc8826b6e7e8982648,,,,,,,space,0.6843,NAN,,NAN,,0.0,6.0,6.0,6.0,1.0,7.0,Sam,Rej,Participant_Images/631f3abc8826b6e7e8982648/631f3abc8826b6e7e8982648_Images/631f3abc8826b6e7e8982648_Image_20.jpeg,liked,3.562416326,,,,,,,,,,,,,,
631f3abc8826b6e7e8982648,,,,,,,space,0.5674,NAN,,NAN,,0.0,7.0,7.0,7.0,1.0,8.0,Sam,Rej,Participant_Images/631f3abc8826b6e7e8982648/631f3abc8826b6e7e8982648_Images/631f3abc8826b6e7e8982648_Image_7.jpeg,liked,2.843822497,,,,,,,,,,,,,,
631f3abc8826b6e7e8982648,,,,,,,space,0.7604,NAN,,NAN,,0.0,8.0,8.0,8.0,1.0,9.0,Sam,Rej,Participant_Images/631f3abc8826b6e7e8982648/631f3abc8826b6e7e8982648_Images/631f3abc8826b6e7e8982648_Image_21.jpeg,did not like,3.546495948,,,,,,,,,,,,,,
631f3abc8826b6e7e8982648,,,,,,,,,,,,,,,,,,,,,,,,c,0.0,space,0.7694,0.0,0.0,0.0,0.0,1.0,2.1363,,,,
631f3abc8826b6e7e8982648,,,,,,,,,NAN,,NAN,,0.0,9.0,9.0,9.0,1.0,10.0,Sam,Rej,Participant_Images/631f3abc8826b6e7e8982648/631f3abc8826b6e7e8982648_Images/631f3abc8826b6e7e8982648_Image_22.jpeg,did not like,1.672012706,,,,,,,,,,,,,,
631f3abc8826b6e7e8982648,,,,,,,space,0.3853,NAN,,NAN,,0.0,10.0,10.0,10.0,1.0,11.0,Sam,Rej,Participant_Images/631f3abc8826b6e7e8982648/631f3abc8826b6e7e8982648_Images/631f3abc8826b6e7e8982648_Image_18.jpeg,liked,4.942172136,,,,,,,,,,,,,,
631f3abc8826b6e7e8982648,,,,,,,space,0.6273,NAN,,NAN,,0.0,11.0,11.0,11.0,1.0,12.0,Sam,Rej,Participant_Images/631f3abc8826b6e7e8982648/631f3abc8826b6e7e8982648_Images/631f3abc8826b6e7e8982648_Image_4.jpeg,did not like,2.50187214,,,,,,,,,,,,,,
631f3abc8826b6e7e8982648,,,,,,,space,0.543,NAN,,NAN,,0.0,12.0,12.0,12.0,1.0,13.0,Sam,Rej,Participant_Images/631f3abc8826b6e7e8982648/631f3abc8826b6e7e8982648_Images/631f3abc8826b6e7e8982648_Image_15.jpeg,did not like,2.071164779,,,,,,,,,,,,,,
631f3abc8826b6e7e8982648,,,,,,,space,0.6852,NAN,,NAN,,0.0,13.0,13.0,13.0,1.0,14.0,Sam,Rej,Participant_Images/631f3abc8826b6e7e8982648/631f3abc8826b6e7e8982648_Images/631f3abc8826b6e7e8982648_Image_17.jpeg,did not like,5.336503566,,,,,,,,,,,,,,
631f3abc8826b6e7e8982648,,,,,,,,,,,,,,,,,,,,,,,,s,1.0,space,0.6601,0.0,0.0,0.0,0.0,1.0,1.8352,,,,
631f3abc8826b6e7e8982648,,,,,,,,,NAN,,NAN,,0.0,14.0,14.0,14.0,1.0,15.0,Sam,Rej,Participant_Images/631f3abc8826b6e7e8982648/631f3abc8826b6e7e8982648_Images/631f3abc8826b6e7e8982648_Image_23.jpeg,did not like,2.642157193,,,,,,,,,,,,,,
631f3abc8826b6e7e8982648,,,,,,,space,0.6101,NAN,,NAN,,0.0,15.0,15.0,15.0,1.0,16.0,Sam,Rej,Participant_Images/631f3abc8826b6e7e8982648/631f3abc8826b6e7e8982648_Images/631f3abc8826b6e7e8982648_Image_26.jpeg,did not like,4.456234322,,,,,,,,,,,,,,
631f3abc8826b6e7e8982648,,,,,,,space,0.219,NAN,,NAN,,0.0,16.0,16.0,16.0,1.0,17.0,Sam,Rej,Participant_Images/631f3abc8826b6e7e8982648/631f3abc8826b6e7e8982648_Images/631f3abc8826b6e7e8982648_Image_2.jpeg,liked,4.438512181,,,,,,,,,,,,,,
631f3abc8826b6e7e8982648,,,,,,,space,0.1852,NAN,,NAN,,0.0,17.0,17.0,17.0,1.0,18.0,Sam,Rej,Participant_Images/631f3abc8826b6e7e8982648/631f3abc8826b6e7e8982648_Images/631f3abc8826b6e7e8982648_Image_6.jpeg,did not like,2.682944783,,,,,,,,,,,,,,
631f3abc8826b6e7e8982648,,,,,,,space,0.5009,NAN,,NAN,,0.0,18.0,18.0,18.0,1.0,19.0,Sam,Rej,Participant_Images/631f3abc8826b6e7e8982648/631f3abc8826b6e7e8982648_Images/631f3abc8826b6e7e8982648_Image_30.jpeg,liked,4.51984296,,,,,,,,,,,,,,
631f3abc8826b6e7e8982648,,,,,,,,,,,,,,,,,,,,,,,,c,0.0,space,1.0526,0.0,0.0,0.0,0.0,1.0,2.2029,,,,
631f3abc8826b6e7e8982648,,,,,,,,,NAN,,NAN,,0.0,19.0,19.0,19.0,1.0,20.0,Sam,Rej,Participant_Images/631f3abc8826b6e7e8982648/631f3abc8826b6e7e8982648_Images/631f3abc8826b6e7e8982648_Image_27.jpeg,did not like,3.195382774,,,,,,,,,,,,,,
631f3abc8826b6e7e8982648,,,,,,,space,0.4765,NAN,,NAN,,0.0,20.0,20.0,20.0,1.0,21.0,Sam,Rej,Participant_Images/631f3abc8826b6e7e8982648/631f3abc8826b6e7e8982648_Images/631f3abc8826b6e7e8982648_Image_13.jpeg,did not like,1.779333479,,,,,,,,,,,,,,
631f3abc8826b6e7e8982648,,,,,,,space,2.1105,NAN,,NAN,,0.0,21.0,21.0,21.0,1.0,22.0,Sam,Rej,Participant_Images/631f3abc8826b6e7e8982648/631f3abc8826b6e7e8982648_Images/631f3abc8826b6e7e8982648_Image_12.jpeg,did not like,4.312468682,,,,,,,,,,,,,,
631f3abc8826b6e7e8982648,,,,,,,space,1.276,NAN,,NAN,,0.0,22.0,22.0,22.0,1.0,23.0,Sam,Rej,Participant_Images/631f3abc8826b6e7e8982648/631f3abc8826b6e7e8982648_Images/631f3abc8826b6e7e8982648_Image_24.jpeg,did not like,4.940433059,,,,,,,,,,,,,,
631f3abc8826b6e7e8982648,,,,,,,space,0.5864,NAN,,NAN,,0.0,23.0,23.0,23.0,1.0,24.0,Sam,Rej,Participant_Images/631f3abc8826b6e7e8982648/631f3abc8826b6e7e8982648_Images/631f3abc8826b6e7e8982648_Image_3.jpeg,did not like,2.7105123,,,,,,,,,,,,,,
631f3abc8826b6e7e8982648,,,,,,,,,,,,,,,,,,,,,,,,c,0.0,space,2.493,0.0,0.0,0.0,0.0,1.0,2.1607,,,,
631f3abc8826b6e7e8982648,,,,,,,,,NAN,,NAN,,0.0,24.0,24.0,24.0,1.0,25.0,Sam,Rej,Participant_Images/631f3abc8826b6e7e8982648/631f3abc8826b6e7e8982648_Images/631f3abc8826b6e7e8982648_Image_11.jpeg,liked,3.602308302,,,,,,,,,,,,,,
631f3abc8826b6e7e8982648,,,,,,,space,0.9511,NAN,,NAN,,0.0,25.0,25.0,25.0,1.0,26.0,Sam,Rej,Participant_Images/631f3abc8826b6e7e8982648/631f3abc8826b6e7e8982648_Images/631f3abc8826b6e7e8982648_Image_29.jpeg,liked,4.106391878,,,,,,,,,,,,,,
631f3abc8826b6e7e8982648,,,,,,,space,0.57,NAN,,NAN,,0.0,26.0,26.0,26.0,1.0,27.0,Sam,Rej,Participant_Images/631f3abc8826b6e7e8982648/631f3abc8826b6e7e8982648_Images/631f3abc8826b6e7e8982648_Image_1.jpeg,did not like,3.799433026,,,,,,,,,,,,,,
631f3abc8826b6e7e8982648,,,,,,,space,0.218,NAN,,NAN,,0.0,27.0,27.0,27.0,1.0,28.0,Sam,Rej,Participant_Images/631f3abc8826b6e7e8982648/631f3abc8826b6e7e8982648_Images/631f3abc8826b6e7e8982648_Image_10.jpeg,did not like,5.246980764,,,,,,,,,,,,,,
631f3abc8826b6e7e8982648,,,,,,,space,0.5427,NAN,,NAN,,0.0,28.0,28.0,28.0,1.0,29.0,Sam,Rej,Participant_Images/631f3abc8826b6e7e8982648/631f3abc8826b6e7e8982648_Images/631f3abc8826b6e7e8982648_Image_8.jpeg,did not like,3.30081769,,,,,,,,,,,,,,
631f3abc8826b6e7e8982648,,,,,,,,,,,,,,,,,,,,,,,,c,0.0,space,0.835,0.0,0.0,0.0,0.0,1.0,1.8591,,,,
631f3abc8826b6e7e8982648,,,,,,,,,1,,2,,0.0,29.0,29.0,29.0,1.0,30.0,Sam,Rej,Participant_Images/631f3abc8826b6e7e8982648/631f3abc8826b6e7e8982648_Images/631f3abc8826b6e7e8982648_Image_9.jpeg,liked,1.661473164,,,,,,,,,,,,,,
631f3abc8826b6e7e8982648,,,,,space,2.0902,space,1.6264,NAN,,NAN,,0.0,30.0,30.0,30.0,1.0,31.0,Riley,Rej,Participant_Images/631f3abc8826b6e7e8982648/631f3abc8826b6e7e8982648_Images/631f3abc8826b6e7e8982648_Image_19.jpeg,did not like,3.613205605,,,,,,,,,,,,,,
631f3abc8826b6e7e8982648,,,,,,,space,1.8176,NAN,,NAN,,0.0,31.0,31.0,31.0,1.0,32.0,Riley,Rej,Participant_Images/631f3abc8826b6e7e8982648/631f3abc8826b6e7e8982648_Images/631f3abc8826b6e7e8982648_Image_22.jpeg,did not like,4.988446431,,,,,,,,,,,,,,
631f3abc8826b6e7e8982648,,,,,,,space,1.2121,NAN,,NAN,,0.0,32.0,32.0,32.0,1.0,33.0,Riley,Rej,Participant_Images/631f3abc8826b6e7e8982648/631f3abc8826b6e7e8982648_Images/631f3abc8826b6e7e8982648_Image_29.jpeg,liked,3.470791822,,,,,,,,,,,,,,
631f3abc8826b6e7e8982648,,,,,,,space,1.2272,NAN,,NAN,,0.0,33.0,33.0,33.0,1.0,34.0,Riley,Rej,Participant_Images/631f3abc8826b6e7e8982648/631f3abc8826b6e7e8982648_Images/631f3abc8826b6e7e8982648_Image_16.jpeg,liked,3.820572462,,,,,,,,,,,,,,
631f3abc8826b6e7e8982648,,,,,,,,,,,,,,,,,,,,,,,,c,0.0,space,1.0447,0.0,0.0,0.0,0.0,1.0,2.0275,,,,
631f3abc8826b6e7e8982648,,,,,,,,,NAN,,NAN,,0.0,34.0,34.0,34.0,1.0,35.0,Riley,Rej,Participant_Images/631f3abc8826b6e7e8982648/631f3abc8826b6e7e8982648_Images/631f3abc8826b6e7e8982648_Image_28.jpeg,did not like,2.455989137,,,,,,,,,,,,,,
631f3abc8826b6e7e8982648,,,,,,,space,0.8107,NAN,,NAN,,0.0,35.0,35.0,35.0,1.0,36.0,Riley,Rej,Participant_Images/631f3abc8826b6e7e8982648/631f3abc8826b6e7e8982648_Images/631f3abc8826b6e7e8982648_Image_2.jpeg,did not like,3.79605092,,,,,,,,,,,,,,
631f3abc8826b6e7e8982648,,,,,,,space,0.4379,NAN,,NAN,,0.0,36.0,36.0,36.0,1.0,37.0,Riley,Rej,Participant_Images/631f3abc8826b6e7e8982648/631f3abc8826b6e7e8982648_Images/631f3abc8826b6e7e8982648_Image_7.jpeg,liked,3.562416326,,,,,,,,,,,,,,
631f3abc8826b6e7e8982648,,,,,,,space,1.4187,NAN,,NAN,,0.0,37.0,37.0,37.0,1.0,38.0,Riley,Rej,Participant_Images/631f3abc8826b6e7e8982648/631f3abc8826b6e7e8982648_Images/631f3abc8826b6e7e8982648_Image_27.jpeg,did not like,2.843822497,,,,,,,,,,,,,,
631f3abc8826b6e7e8982648,,,,,,,space,2.3436,NAN,,NAN,,0.0,38.0,38.0,38.0,1.0,39.0,Riley,Rej,Participant_Images/631f3abc8826b6e7e8982648/631f3abc8826b6e7e8982648_Images/631f3abc8826b6e7e8982648_Image_4.jpeg,liked,3.546495948,,,,,,,,,,,,,,
631f3abc8826b6e7e8982648,,,,,,,,,,,,,,,,,,,,,,,,s,1.0,space,0.7365,0.0,0.0,0.0,0.0,1.0,2.0776,l,0.4656,,
631f3abc8826b6e7e8982648,,,,,,,,,NAN,,NAN,,0.0,39.0,39.0,39.0,1.0,40.0,Riley,Rej,Participant_Images/631f3abc8826b6e7e8982648/631f3abc8826b6e7e8982648_Images/631f3abc8826b6e7e8982648_Image_10.jpeg,did not like,1.672012706,,,,,,,,,,,,,,
631f3abc8826b6e7e8982648,,,,,,,space,0.3597,NAN,,NAN,,0.0,40.0,40.0,40.0,1.0,41.0,Riley,Rej,Participant_Images/631f3abc8826b6e7e8982648/631f3abc8826b6e7e8982648_Images/631f3abc8826b6e7e8982648_Image_3.jpeg,liked,4.942172136,,,,,,,,,,,,,,
631f3abc8826b6e7e8982648,,,,,,,space,0.7781,NAN,,NAN,,0.0,41.0,41.0,41.0,1.0,42.0,Riley,Rej,Participant_Images/631f3abc8826b6e7e8982648/631f3abc8826b6e7e8982648_Images/631f3abc8826b6e7e8982648_Image_13.jpeg,liked,2.50187214,,,,,,,,,,,,,,
631f3abc8826b6e7e8982648,,,,,,,space,0.2421,NAN,,NAN,,0.0,42.0,42.0,42.0,1.0,43.0,Riley,Rej,Participant_Images/631f3abc8826b6e7e8982648/631f3abc8826b6e7e8982648_Images/631f3abc8826b6e7e8982648_Image_23.jpeg,did not like,2.071164779,,,,,,,,,,,,,,
631f3abc8826b6e7e8982648,,,,,,,space,0.8944,NAN,,NAN,,0.0,43.0,43.0,43.0,1.0,44.0,Riley,Rej,Participant_Images/631f3abc8826b6e7e8982648/631f3abc8826b6e7e8982648_Images/631f3abc8826b6e7e8982648_Image_5.jpeg,did not like,5.336503566,,,,,,,,,,,,,,
631f3abc8826b6e7e8982648,,,,,,,,,,,,,,,,,,,,,,,,s,1.0,space,0.4761,0.0,0.0,0.0,0.0,1.0,2.243,h,0.2224,,
631f3abc8826b6e7e8982648,,,,,,,,,NAN,,NAN,,0.0,44.0,44.0,44.0,1.0,45.0,Riley,Rej,Participant_Images/631f3abc8826b6e7e8982648/631f3abc8826b6e7e8982648_Images/631f3abc8826b6e7e8982648_Image_25.jpeg,did not like,2.642157193,,,,,,,,,,,,,,
631f3abc8826b6e7e8982648,,,,,,,space,0.401,NAN,,NAN,,0.0,45.0,45.0,45.0,1.0,46.0,Riley,Rej,Participant_Images/631f3abc8826b6e7e8982648/631f3abc8826b6e7e8982648_Images/631f3abc8826b6e7e8982648_Image_24.jpeg,did not like,4.456234322,,,,,,,,,,,,,,
631f3abc8826b6e7e8982648,,,,,,,space,0.3699,NAN,,NAN,,0.0,46.0,46.0,46.0,1.0,47.0,Riley,Rej,Participant_Images/631f3abc8826b6e7e8982648/631f3abc8826b6e7e8982648_Images/631f3abc8826b6e7e8982648_Image_1.jpeg,did not like,4.438512181,,,,,,,,,,,,,,
631f3abc8826b6e7e8982648,,,,,,,space,0.6296,NAN,,NAN,,0.0,47.0,47.0,47.0,1.0,48.0,Riley,Rej,Participant_Images/631f3abc8826b6e7e8982648/631f3abc8826b6e7e8982648_Images/631f3abc8826b6e7e8982648_Image_9.jpeg,did not like,2.682944783,,,,,,,,,,,,,,
631f3abc8826b6e7e8982648,,,,,,,space,0.5123,NAN,,NAN,,0.0,48.0,48.0,48.0,1.0,49.0,Riley,Rej,Participant_Images/631f3abc8826b6e7e8982648/631f3abc8826b6e7e8982648_Images/631f3abc8826b6e7e8982648_Image_12.jpeg,liked,4.51984296,,,,,,,,,,,,,,
631f3abc8826b6e7e8982648,,,,,,,,,,,,,,,,,,,,,,,,s,1.0,space,1.218,0.0,0.0,0.0,0.0,1.0,1.6196,l,0.3004,,
631f3abc8826b6e7e8982648,,,,,,,,,NAN,,NAN,,0.0,49.0,49.0,49.0,1.0,50.0,Riley,Rej,Participant_Images/631f3abc8826b6e7e8982648/631f3abc8826b6e7e8982648_Images/631f3abc8826b6e7e8982648_Image_6.jpeg,did not like,3.195382774,,,,,,,,,,,,,,
631f3abc8826b6e7e8982648,,,,,,,space,0.9185,NAN,,NAN,,0.0,50.0,50.0,50.0,1.0,51.0,Riley,Rej,Participant_Images/631f3abc8826b6e7e8982648/631f3abc8826b6e7e8982648_Images/631f3abc8826b6e7e8982648_Image_17.jpeg,liked,1.779333479,,,,,,,,,,,,,,
631f3abc8826b6e7e8982648,,,,,,,space,0.5197,NAN,,NAN,,0.0,51.0,51.0,51.0,1.0,52.0,Riley,Rej,Participant_Images/631f3abc8826b6e7e8982648/631f3abc8826b6e7e8982648_Images/631f3abc8826b6e7e8982648_Image_11.jpeg,liked,4.312468682,,,,,,,,,,,,,,
631f3abc8826b6e7e8982648,,,,,,,space,0.7026,NAN,,NAN,,0.0,52.0,52.0,52.0,1.0,53.0,Riley,Rej,Participant_Images/631f3abc8826b6e7e8982648/631f3abc8826b6e7e8982648_Images/631f3abc8826b6e7e8982648_Image_8.jpeg,did not like,4.940433059,,,,,,,,,,,,,,
631f3abc8826b6e7e8982648,,,,,,,space,0.6597,NAN,,NAN,,0.0,53.0,53.0,53.0,1.0,54.0,Riley,Rej,Participant_Images/631f3abc8826b6e7e8982648/631f3abc8826b6e7e8982648_Images/631f3abc8826b6e7e8982648_Image_18.jpeg,did not like,2.7105123,,,,,,,,,,,,,,
631f3abc8826b6e7e8982648,,,,,,,,,,,,,,,,,,,,,,,,c,0.0,space,2.0396,0.0,0.0,0.0,0.0,1.0,1.2676,,,,
631f3abc8826b6e7e8982648,,,,,,,,,NAN,,NAN,,0.0,54.0,54.0,54.0,1.0,55.0,Riley,Rej,Participant_Images/631f3abc8826b6e7e8982648/631f3abc8826b6e7e8982648_Images/631f3abc8826b6e7e8982648_Image_14.jpeg,did not like,3.602308302,,,,,,,,,,,,,,
631f3abc8826b6e7e8982648,,,,,,,space,0.2874,NAN,,NAN,,0.0,55.0,55.0,55.0,1.0,56.0,Riley,Rej,Participant_Images/631f3abc8826b6e7e8982648/631f3abc8826b6e7e8982648_Images/631f3abc8826b6e7e8982648_Image_30.jpeg,did not like,4.106391878,,,,,,,,,,,,,,
631f3abc8826b6e7e8982648,,,,,,,space,0.3257,NAN,,NAN,,0.0,56.0,56.0,56.0,1.0,57.0,Riley,Rej,Participant_Images/631f3abc8826b6e7e8982648/631f3abc8826b6e7e8982648_Images/631f3abc8826b6e7e8982648_Image_26.jpeg,did not like,3.799433026,,,,,,,,,,,,,,
631f3abc8826b6e7e8982648,,,,,,,space,0.5848,NAN,,NAN,,0.0,57.0,57.0,57.0,1.0,58.0,Riley,Rej,Participant_Images/631f3abc8826b6e7e8982648/631f3abc8826b6e7e8982648_Images/631f3abc8826b6e7e8982648_Image_20.jpeg,did not like,5.246980764,,,,,,,,,,,,,,
631f3abc8826b6e7e8982648,,,,,,,space,0.6537,NAN,,NAN,,0.0,58.0,58.0,58.0,1.0,59.0,Riley,Rej,Participant_Images/631f3abc8826b6e7e8982648/631f3abc8826b6e7e8982648_Images/631f3abc8826b6e7e8982648_Image_21.jpeg,did not like,3.30081769,,,,,,,,,,,,,,
631f3abc8826b6e7e8982648,,,,,,,,,,,,,,,,,,,,,,,,s,1.0,space,0.768,0.0,0.0,0.0,0.0,1.0,2.352,h,0.4822,,
631f3abc8826b6e7e8982648,,,,,,,,,1,,2,,0.0,59.0,59.0,59.0,1.0,60.0,Riley,Rej,Participant_Images/631f3abc8826b6e7e8982648/631f3abc8826b6e7e8982648_Images/631f3abc8826b6e7e8982648_Image_15.jpeg,did not like,1.661473164,,,,,,,,,,,,,,
631f3abc8826b6e7e8982648,,,,,space,1.6599,space,0.9364,NAN,,NAN,,0.0,60.0,60.0,60.0,1.0,61.0,Alex,Acc,Participant_Images/631f3abc8826b6e7e8982648/631f3abc8826b6e7e8982648_Images/631f3abc8826b6e7e8982648_Image_1.jpeg,liked,3.613205605,,,,,,,,,,,,,,
631f3abc8826b6e7e8982648,,,,,,,space,0.6435,NAN,,NAN,,0.0,61.0,61.0,61.0,1.0,62.0,Alex,Acc,Participant_Images/631f3abc8826b6e7e8982648/631f3abc8826b6e7e8982648_Images/631f3abc8826b6e7e8982648_Image_27.jpeg,liked,4.988446431,,,,,,,,,,,,,,
631f3abc8826b6e7e8982648,,,,,,,space,0.4022,NAN,,NAN,,0.0,62.0,62.0,62.0,1.0,63.0,Alex,Acc,Participant_Images/631f3abc8826b6e7e8982648/631f3abc8826b6e7e8982648_Images/631f3abc8826b6e7e8982648_Image_2.jpeg,liked,3.470791822,,,,,,,,,,,,,,
631f3abc8826b6e7e8982648,,,,,,,space,0.4614,NAN,,NAN,,0.0,63.0,63.0,63.0,1.0,64.0,Alex,Acc,Participant_Images/631f3abc8826b6e7e8982648/631f3abc8826b6e7e8982648_Images/631f3abc8826b6e7e8982648_Image_22.jpeg,liked,3.820572462,,,,,,,,,,,,,,
631f3abc8826b6e7e8982648,,,,,,,,,,,,,,,,,,,,,,,,c,0.0,space,0.5851,0.0,0.0,0.0,0.0,1.0,2.7424,,,,
631f3abc8826b6e7e8982648,,,,,,,,,NAN,,NAN,,0.0,64.0,64.0,64.0,1.0,65.0,Alex,Acc,Participant_Images/631f3abc8826b6e7e8982648/631f3abc8826b6e7e8982648_Images/631f3abc8826b6e7e8982648_Image_16.jpeg,did not like,2.455989137,,,,,,,,,,,,,,
631f3abc8826b6e7e8982648,,,,,,,space,0.4431,NAN,,NAN,,0.0,65.0,65.0,65.0,1.0,66.0,Alex,Acc,Participant_Images/631f3abc8826b6e7e8982648/631f3abc8826b6e7e8982648_Images/631f3abc8826b6e7e8982648_Image_30.jpeg,liked,3.79605092,,,,,,,,,,,,,,
631f3abc8826b6e7e8982648,,,,,,,space,0.5699,NAN,,NAN,,0.0,66.0,66.0,66.0,1.0,67.0,Alex,Acc,Participant_Images/631f3abc8826b6e7e8982648/631f3abc8826b6e7e8982648_Images/631f3abc8826b6e7e8982648_Image_11.jpeg,liked,3.562416326,,,,,,,,,,,,,,
631f3abc8826b6e7e8982648,,,,,,,space,0.3352,NAN,,NAN,,0.0,67.0,67.0,67.0,1.0,68.0,Alex,Acc,Participant_Images/631f3abc8826b6e7e8982648/631f3abc8826b6e7e8982648_Images/631f3abc8826b6e7e8982648_Image_15.jpeg,liked,2.843822497,,,,,,,,,,,,,,
631f3abc8826b6e7e8982648,,,,,,,space,1.3428,NAN,,NAN,,0.0,68.0,68.0,68.0,1.0,69.0,Alex,Acc,Participant_Images/631f3abc8826b6e7e8982648/631f3abc8826b6e7e8982648_Images/631f3abc8826b6e7e8982648_Image_24.jpeg,did not like,3.546495948,,,,,,,,,,,,,,
631f3abc8826b6e7e8982648,,,,,,,,,,,,,,,,,,,,,,,,c,0.0,space,1.1968,0.0,0.0,0.0,0.0,1.0,3.0246,,,,
631f3abc8826b6e7e8982648,,,,,,,,,NAN,,NAN,,0.0,69.0,69.0,69.0,1.0,70.0,Alex,Acc,Participant_Images/631f3abc8826b6e7e8982648/631f3abc8826b6e7e8982648_Images/631f3abc8826b6e7e8982648_Image_28.jpeg,liked,1.672012706,,,,,,,,,,,,,,
631f3abc8826b6e7e8982648,,,,,,,space,0.3355,NAN,,NAN,,0.0,70.0,70.0,70.0,1.0,71.0,Alex,Acc,Participant_Images/631f3abc8826b6e7e8982648/631f3abc8826b6e7e8982648_Images/631f3abc8826b6e7e8982648_Image_12.jpeg,liked,4.942172136,,,,,,,,,,,,,,
631f3abc8826b6e7e8982648,,,,,,,space,0.5351,NAN,,NAN,,0.0,71.0,71.0,71.0,1.0,72.0,Alex,Acc,Participant_Images/631f3abc8826b6e7e8982648/631f3abc8826b6e7e8982648_Images/631f3abc8826b6e7e8982648_Image_13.jpeg,did not like,2.50187214,,,,,,,,,,,,,,
631f3abc8826b6e7e8982648,,,,,,,space,1.4741,NAN,,NAN,,0.0,72.0,72.0,72.0,1.0,73.0,Alex,Acc,Participant_Images/631f3abc8826b6e7e8982648/631f3abc8826b6e7e8982648_Images/631f3abc8826b6e7e8982648_Image_23.jpeg,did not like,2.071164779,,,,,,,,,,,,,,
631f3abc8826b6e7e8982648,,,,,,,space,4.0509,NAN,,NAN,,0.0,73.0,73.0,73.0,1.0,74.0,Alex,Acc,Participant_Images/631f3abc8826b6e7e8982648/631f3abc8826b6e7e8982648_Images/631f3abc8826b6e7e8982648_Image_19.jpeg,liked,5.336503566,,,,,,,,,,,,,,
631f3abc8826b6e7e8982648,,,,,,,,,,,,,,,,,,,,,,,,,999.0,space,1.3174,0.0,0.0,0.0,0.0,1.0,,,,,
631f3abc8826b6e7e8982648,,,,,,,,,NAN,,NAN,,0.0,74.0,74.0,74.0,1.0,75.0,Alex,Acc,Participant_Images/631f3abc8826b6e7e8982648/631f3abc8826b6e7e8982648_Images/631f3abc8826b6e7e8982648_Image_10.jpeg,liked,2.642157193,,,,,,,,,,,,,,
631f3abc8826b6e7e8982648,,,,,,,space,0.3765,NAN,,NAN,,0.0,75.0,75.0,75.0,1.0,76.0,Alex,Acc,Participant_Images/631f3abc8826b6e7e8982648/631f3abc8826b6e7e8982648_Images/631f3abc8826b6e7e8982648_Image_5.jpeg,did not like,4.456234322,,,,,,,,,,,,,,
631f3abc8826b6e7e8982648,,,,,,,space,0.4969,NAN,,NAN,,0.0,76.0,76.0,76.0,1.0,77.0,Alex,Acc,Participant_Images/631f3abc8826b6e7e8982648/631f3abc8826b6e7e8982648_Images/631f3abc8826b6e7e8982648_Image_9.jpeg,liked,4.438512181,,,,,,,,,,,,,,
631f3abc8826b6e7e8982648,,,,,,,space,0.4947,NAN,,NAN,,0.0,77.0,77.0,77.0,1.0,78.0,Alex,Acc,Participant_Images/631f3abc8826b6e7e8982648/631f3abc8826b6e7e8982648_Images/631f3abc8826b6e7e8982648_Image_18.jpeg,liked,2.682944783,,,,,,,,,,,,,,
631f3abc8826b6e7e8982648,,,,,,,space,1.0106,NAN,,NAN,,0.0,78.0,78.0,78.0,1.0,79.0,Alex,Acc,Participant_Images/631f3abc8826b6e7e8982648/631f3abc8826b6e7e8982648_Images/631f3abc8826b6e7e8982648_Image_6.jpeg,did not like,4.51984296,,,,,,,,,,,,,,
631f3abc8826b6e7e8982648,,,,,,,,,,,,,,,,,,,,,,,,c,0.0,space,0.5604,0.0,0.0,0.0,0.0,1.0,2.2535,,,,
631f3abc8826b6e7e8982648,,,,,,,,,NAN,,NAN,,0.0,79.0,79.0,79.0,1.0,80.0,Alex,Acc,Participant_Images/631f3abc8826b6e7e8982648/631f3abc8826b6e7e8982648_Images/631f3abc8826b6e7e8982648_Image_8.jpeg,liked,3.195382774,,,,,,,,,,,,,,
631f3abc8826b6e7e8982648,,,,,,,space,0.2795,NAN,,NAN,,0.0,80.0,80.0,80.0,1.0,81.0,Alex,Acc,Participant_Images/631f3abc8826b6e7e8982648/631f3abc8826b6e7e8982648_Images/631f3abc8826b6e7e8982648_Image_29.jpeg,liked,1.779333479,,,,,,,,,,,,,,
631f3abc8826b6e7e8982648,,,,,,,space,0.3464,NAN,,NAN,,0.0,81.0,81.0,81.0,1.0,82.0,Alex,Acc,Participant_Images/631f3abc8826b6e7e8982648/631f3abc8826b6e7e8982648_Images/631f3abc8826b6e7e8982648_Image_3.jpeg,liked,4.312468682,,,,,,,,,,,,,,
631f3abc8826b6e7e8982648,,,,,,,space,0.7456,NAN,,NAN,,0.0,82.0,82.0,82.0,1.0,83.0,Alex,Acc,Participant_Images/631f3abc8826b6e7e8982648/631f3abc8826b6e7e8982648_Images/631f3abc8826b6e7e8982648_Image_4.jpeg,liked,4.940433059,,,,,,,,,,,,,,
631f3abc8826b6e7e8982648,,,,,,,space,1.162,NAN,,NAN,,0.0,83.0,83.0,83.0,1.0,84.0,Alex,Acc,Participant_Images/631f3abc8826b6e7e8982648/631f3abc8826b6e7e8982648_Images/631f3abc8826b6e7e8982648_Image_17.jpeg,did not like,2.7105123,,,,,,,,,,,,,,
631f3abc8826b6e7e8982648,,,,,,,,,,,,,,,,,,,,,,,,c,0.0,space,0.8521,0.0,0.0,0.0,0.0,1.0,1.4619,,,,
631f3abc8826b6e7e8982648,,,,,,,,,NAN,,NAN,,0.0,84.0,84.0,84.0,1.0,85.0,Alex,Acc,Participant_Images/631f3abc8826b6e7e8982648/631f3abc8826b6e7e8982648_Images/631f3abc8826b6e7e8982648_Image_21.jpeg,liked,3.602308302,,,,,,,,,,,,,,
631f3abc8826b6e7e8982648,,,,,,,space,0.2942,NAN,,NAN,,0.0,85.0,85.0,85.0,1.0,86.0,Alex,Acc,Participant_Images/631f3abc8826b6e7e8982648/631f3abc8826b6e7e8982648_Images/631f3abc8826b6e7e8982648_Image_26.jpeg,liked,4.106391878,,,,,,,,,,,,,,
631f3abc8826b6e7e8982648,,,,,,,space,0.9178,NAN,,NAN,,0.0,86.0,86.0,86.0,1.0,87.0,Alex,Acc,Participant_Images/631f3abc8826b6e7e8982648/631f3abc8826b6e7e8982648_Images/631f3abc8826b6e7e8982648_Image_25.jpeg,did not like,3.799433026,,,,,,,,,,,,,,
631f3abc8826b6e7e8982648,,,,,,,space,2.7091,NAN,,NAN,,0.0,87.0,87.0,87.0,1.0,88.0,Alex,Acc,Participant_Images/631f3abc8826b6e7e8982648/631f3abc8826b6e7e8982648_Images/631f3abc8826b6e7e8982648_Image_20.jpeg,did not like,5.246980764,,,,,,,,,,,,,,
631f3abc8826b6e7e8982648,,,,,,,space,0.6262,NAN,,NAN,,0.0,88.0,88.0,88.0,1.0,89.0,Alex,Acc,Participant_Images/631f3abc8826b6e7e8982648/631f3abc8826b6e7e8982648_Images/631f3abc8826b6e7e8982648_Image_14.jpeg,liked,3.30081769,,,,,,,,,,,,,,
631f3abc8826b6e7e8982648,,,,,,,,,,,,,,,,,,,,,,,,c,0.0,space,0.6691,0.0,0.0,0.0,0.0,1.0,1.4518,,,,
631f3abc8826b6e7e8982648,,,,,,,,,1,,3,,0.0,89.0,89.0,89.0,1.0,90.0,Alex,Acc,Participant_Images/631f3abc8826b6e7e8982648/631f3abc8826b6e7e8982648_Images/631f3abc8826b6e7e8982648_Image_7.jpeg,liked,1.661473164,,,,,,,,,,,,,,
631f3abc8826b6e7e8982648,,,,,space,1.5852,space,0.2429,NAN,,NAN,,0.0,90.0,90.0,90.0,1.0,91.0,Taylor,Neutral,Participant_Images/631f3abc8826b6e7e8982648/631f3abc8826b6e7e8982648_Images/631f3abc8826b6e7e8982648_Image_20.jpeg,liked,3.613205605,,,,,,,,,,,,,,
631f3abc8826b6e7e8982648,,,,,,,space,0.2368,NAN,,NAN,,0.0,91.0,91.0,91.0,1.0,92.0,Taylor,Neutral,Participant_Images/631f3abc8826b6e7e8982648/631f3abc8826b6e7e8982648_Images/631f3abc8826b6e7e8982648_Image_18.jpeg,liked,4.988446431,,,,,,,,,,,,,,
631f3abc8826b6e7e8982648,,,,,,,space,0.6276,NAN,,NAN,,0.0,92.0,92.0,92.0,1.0,93.0,Taylor,Neutral,Participant_Images/631f3abc8826b6e7e8982648/631f3abc8826b6e7e8982648_Images/631f3abc8826b6e7e8982648_Image_22.jpeg,liked,3.470791822,,,,,,,,,,,,,,
631f3abc8826b6e7e8982648,,,,,,,space,0.8695,NAN,,NAN,,0.0,93.0,93.0,93.0,1.0,94.0,Taylor,Neutral,Participant_Images/631f3abc8826b6e7e8982648/631f3abc8826b6e7e8982648_Images/631f3abc8826b6e7e8982648_Image_6.jpeg,did not like,3.820572462,,,,,,,,,,,,,,
631f3abc8826b6e7e8982648,,,,,,,,,,,,,,,,,,,,,,,,c,0.0,space,0.4601,0.0,0.0,0.0,0.0,1.0,2.4522,,,,
631f3abc8826b6e7e8982648,,,,,,,,,NAN,,NAN,,0.0,94.0,94.0,94.0,1.0,95.0,Taylor,Neutral,Participant_Images/631f3abc8826b6e7e8982648/631f3abc8826b6e7e8982648_Images/631f3abc8826b6e7e8982648_Image_23.jpeg,liked,2.455989137,,,,,,,,,,,,,,
631f3abc8826b6e7e8982648,,,,,,,space,0.2919,NAN,,NAN,,0.0,95.0,95.0,95.0,1.0,96.0,Taylor,Neutral,Participant_Images/631f3abc8826b6e7e8982648/631f3abc8826b6e7e8982648_Images/631f3abc8826b6e7e8982648_Image_5.jpeg,liked,3.79605092,,,,,,,,,,,,,,
631f3abc8826b6e7e8982648,,,,,,,space,0.6603,NAN,,NAN,,0.0,96.0,96.0,96.0,1.0,97.0,Taylor,Neutral,Participant_Images/631f3abc8826b6e7e8982648/631f3abc8826b6e7e8982648_Images/631f3abc8826b6e7e8982648_Image_4.jpeg,did not like,3.562416326,,,,,,,,,,,,,,
631f3abc8826b6e7e8982648,,,,,,,space,1.3531,NAN,,NAN,,0.0,97.0,97.0,97.0,1.0,98.0,Taylor,Neutral,Participant_Images/631f3abc8826b6e7e8982648/631f3abc8826b6e7e8982648_Images/631f3abc8826b6e7e8982648_Image_24.jpeg,did not like,2.843822497,,,,,,,,,,,,,,
631f3abc8826b6e7e8982648,,,,,,,space,0.487,NAN,,NAN,,0.0,98.0,98.0,98.0,1.0,99.0,Taylor,Neutral,Participant_Images/631f3abc8826b6e7e8982648/631f3abc8826b6e7e8982648_Images/631f3abc8826b6e7e8982648_Image_8.jpeg,did not like,3.546495948,,,,,,,,,,,,,,
631f3abc8826b6e7e8982648,,,,,,,,,,,,,,,,,,,,,,,,c,0.0,space,0.6095,0.0,0.0,0.0,0.0,1.0,1.3278,,,,
631f3abc8826b6e7e8982648,,,,,,,,,NAN,,NAN,,0.0,99.0,99.0,99.0,1.0,100.0,Taylor,Neutral,Participant_Images/631f3abc8826b6e7e8982648/631f3abc8826b6e7e8982648_Images/631f3abc8826b6e7e8982648_Image_2.jpeg,liked,1.672012706,,,,,,,,,,,,,,
631f3abc8826b6e7e8982648,,,,,,,space,0.5676,NAN,,NAN,,0.0,100.0,100.0,100.0,1.0,101.0,Taylor,Neutral,Participant_Images/631f3abc8826b6e7e8982648/631f3abc8826b6e7e8982648_Images/631f3abc8826b6e7e8982648_Image_9.jpeg,did not like,4.942172136,,,,,,,,,,,,,,
631f3abc8826b6e7e8982648,,,,,,,space,0.7183,NAN,,NAN,,0.0,101.0,101.0,101.0,1.0,102.0,Taylor,Neutral,Participant_Images/631f3abc8826b6e7e8982648/631f3abc8826b6e7e8982648_Images/631f3abc8826b6e7e8982648_Image_12.jpeg,did not like,2.50187214,,,,,,,,,,,,,,
631f3abc8826b6e7e8982648,,,,,,,space,0.9761,NAN,,NAN,,0.0,102.0,102.0,102.0,1.0,103.0,Taylor,Neutral,Participant_Images/631f3abc8826b6e7e8982648/631f3abc8826b6e7e8982648_Images/631f3abc8826b6e7e8982648_Image_19.jpeg,did not like,2.071164779,,,,,,,,,,,,,,
631f3abc8826b6e7e8982648,,,,,,,space,0.5429,NAN,,NAN,,0.0,103.0,103.0,103.0,1.0,104.0,Taylor,Neutral,Participant_Images/631f3abc8826b6e7e8982648/631f3abc8826b6e7e8982648_Images/631f3abc8826b6e7e8982648_Image_17.jpeg,did not like,5.336503566,,,,,,,,,,,,,,
631f3abc8826b6e7e8982648,,,,,,,,,,,,,,,,,,,,,,,,c,0.0,space,1.5968,0.0,0.0,0.0,0.0,1.0,1.5111,,,,
631f3abc8826b6e7e8982648,,,,,,,,,NAN,,NAN,,0.0,104.0,104.0,104.0,1.0,105.0,Taylor,Neutral,Participant_Images/631f3abc8826b6e7e8982648/631f3abc8826b6e7e8982648_Images/631f3abc8826b6e7e8982648_Image_13.jpeg,did not like,2.642157193,,,,,,,,,,,,,,
631f3abc8826b6e7e8982648,,,,,,,space,0.6789,NAN,,NAN,,0.0,105.0,105.0,105.0,1.0,106.0,Taylor,Neutral,Participant_Images/631f3abc8826b6e7e8982648/631f3abc8826b6e7e8982648_Images/631f3abc8826b6e7e8982648_Image_11.jpeg,did not like,4.456234322,,,,,,,,,,,,,,
631f3abc8826b6e7e8982648,,,,,,,space,0.8099,NAN,,NAN,,0.0,106.0,106.0,106.0,1.0,107.0,Taylor,Neutral,Participant_Images/631f3abc8826b6e7e8982648/631f3abc8826b6e7e8982648_Images/631f3abc8826b6e7e8982648_Image_29.jpeg,liked,4.438512181,,,,,,,,,,,,,,
631f3abc8826b6e7e8982648,,,,,,,space,0.6281,NAN,,NAN,,0.0,107.0,107.0,107.0,1.0,108.0,Taylor,Neutral,Participant_Images/631f3abc8826b6e7e8982648/631f3abc8826b6e7e8982648_Images/631f3abc8826b6e7e8982648_Image_28.jpeg,liked,2.682944783,,,,,,,,,,,,,,
631f3abc8826b6e7e8982648,,,,,,,space,0.4596,NAN,,NAN,,0.0,108.0,108.0,108.0,1.0,109.0,Taylor,Neutral,Participant_Images/631f3abc8826b6e7e8982648/631f3abc8826b6e7e8982648_Images/631f3abc8826b6e7e8982648_Image_30.jpeg,liked,4.51984296,,,,,,,,,,,,,,
631f3abc8826b6e7e8982648,,,,,,,,,,,,,,,,,,,,,,,,c,0.0,space,1.4771,0.0,0.0,0.0,0.0,1.0,1.8767,,,,
631f3abc8826b6e7e8982648,,,,,,,,,NAN,,NAN,,0.0,109.0,109.0,109.0,1.0,110.0,Taylor,Neutral,Participant_Images/631f3abc8826b6e7e8982648/631f3abc8826b6e7e8982648_Images/631f3abc8826b6e7e8982648_Image_27.jpeg,did not like,3.195382774,,,,,,,,,,,,,,
631f3abc8826b6e7e8982648,,,,,,,space,0.6018,NAN,,NAN,,0.0,110.0,110.0,110.0,1.0,111.0,Taylor,Neutral,Participant_Images/631f3abc8826b6e7e8982648/631f3abc8826b6e7e8982648_Images/631f3abc8826b6e7e8982648_Image_15.jpeg,did not like,1.779333479,,,,,,,,,,,,,,
631f3abc8826b6e7e8982648,,,,,,,space,0.7513,NAN,,NAN,,0.0,111.0,111.0,111.0,1.0,112.0,Taylor,Neutral,Participant_Images/631f3abc8826b6e7e8982648/631f3abc8826b6e7e8982648_Images/631f3abc8826b6e7e8982648_Image_25.jpeg,liked,4.312468682,,,,,,,,,,,,,,
631f3abc8826b6e7e8982648,,,,,,,space,0.8934,NAN,,NAN,,0.0,112.0,112.0,112.0,1.0,113.0,Taylor,Neutral,Participant_Images/631f3abc8826b6e7e8982648/631f3abc8826b6e7e8982648_Images/631f3abc8826b6e7e8982648_Image_26.jpeg,liked,4.940433059,,,,,,,,,,,,,,
631f3abc8826b6e7e8982648,,,,,,,space,1.1525,NAN,,NAN,,0.0,113.0,113.0,113.0,1.0,114.0,Taylor,Neutral,Participant_Images/631f3abc8826b6e7e8982648/631f3abc8826b6e7e8982648_Images/631f3abc8826b6e7e8982648_Image_21.jpeg,liked,2.7105123,,,,,,,,,,,,,,
631f3abc8826b6e7e8982648,,,,,,,,,,,,,,,,,,,,,,,,c,0.0,space,2.3025,0.0,0.0,0.0,0.0,1.0,1.2831,,,,
631f3abc8826b6e7e8982648,,,,,,,,,NAN,,NAN,,0.0,114.0,114.0,114.0,1.0,115.0,Taylor,Neutral,Participant_Images/631f3abc8826b6e7e8982648/631f3abc8826b6e7e8982648_Images/631f3abc8826b6e7e8982648_Image_3.jpeg,liked,3.602308302,,,,,,,,,,,,,,
631f3abc8826b6e7e8982648,,,,,,,space,2.692,NAN,,NAN,,0.0,115.0,115.0,115.0,1.0,116.0,Taylor,Neutral,Participant_Images/631f3abc8826b6e7e8982648/631f3abc8826b6e7e8982648_Images/631f3abc8826b6e7e8982648_Image_16.jpeg,liked,4.106391878,,,,,,,,,,,,,,
631f3abc8826b6e7e8982648,,,,,,,space,5.6672,NAN,,NAN,,0.0,116.0,116.0,116.0,1.0,117.0,Taylor,Neutral,Participant_Images/631f3abc8826b6e7e8982648/631f3abc8826b6e7e8982648_Images/631f3abc8826b6e7e8982648_Image_10.jpeg,did not like,3.799433026,,,,,,,,,,,,,,
631f3abc8826b6e7e8982648,,,,,,,space,0.6426,NAN,,NAN,,0.0,117.0,117.0,117.0,1.0,118.0,Taylor,Neutral,Participant_Images/631f3abc8826b6e7e8982648/631f3abc8826b6e7e8982648_Images/631f3abc8826b6e7e8982648_Image_1.jpeg,did not like,5.246980764,,,,,,,,,,,,,,
631f3abc8826b6e7e8982648,,,,,,,space,0.6014,NAN,,NAN,,0.0,118.0,118.0,118.0,1.0,119.0,Taylor,Neutral,Participant_Images/631f3abc8826b6e7e8982648/631f3abc8826b6e7e8982648_Images/631f3abc8826b6e7e8982648_Image_7.jpeg,liked,3.30081769,,,,,,,,,,,,,,
631f3abc8826b6e7e8982648,,,,,,,,,,,,,,,,,,,,,,,,,999.0,space,4.5111,0.0,0.0,0.0,0.0,1.0,,,,,
631f3abc8826b6e7e8982648,,,,,,,,,3,,4,,0.0,119.0,119.0,119.0,1.0,120.0,Taylor,Neutral,Participant_Images/631f3abc8826b6e7e8982648/631f3abc8826b6e7e8982648_Images/631f3abc8826b6e7e8982648_Image_14.jpeg,did not like,1.661473164,,,,,,,,,,,,,,
631f3abc8826b6e7e8982648,,,,,space,3.1944,space,0.6439,NAN,,NAN,,0.0,120.0,120.0,120.0,1.0,121.0,Charlie,Acc,Participant_Images/631f3abc8826b6e7e8982648/631f3abc8826b6e7e8982648_Images/631f3abc8826b6e7e8982648_Image_8.jpeg,liked,3.613205605,,,,,,,,,,,,,,
631f3abc8826b6e7e8982648,,,,,,,space,2.703,NAN,,NAN,,0.0,121.0,121.0,121.0,1.0,122.0,Charlie,Acc,Participant_Images/631f3abc8826b6e7e8982648/631f3abc8826b6e7e8982648_Images/631f3abc8826b6e7e8982648_Image_22.jpeg,did not like,4.988446431,,,,,,,,,,,,,,
631f3abc8826b6e7e8982648,,,,,,,space,1.4354,NAN,,NAN,,0.0,122.0,122.0,122.0,1.0,123.0,Charlie,Acc,Participant_Images/631f3abc8826b6e7e8982648/631f3abc8826b6e7e8982648_Images/631f3abc8826b6e7e8982648_Image_3.jpeg,did not like,3.470791822,,,,,,,,,,,,,,
631f3abc8826b6e7e8982648,,,,,,,space,0.7683,NAN,,NAN,,0.0,123.0,123.0,123.0,1.0,124.0,Charlie,Acc,Participant_Images/631f3abc8826b6e7e8982648/631f3abc8826b6e7e8982648_Images/631f3abc8826b6e7e8982648_Image_16.jpeg,liked,3.820572462,,,,,,,,,,,,,,
631f3abc8826b6e7e8982648,,,,,,,,,,,,,,,,,,,,,,,,c,0.0,space,0.3682,0.0,0.0,0.0,0.0,1.0,2.6844,,,,
631f3abc8826b6e7e8982648,,,,,,,,,NAN,,NAN,,0.0,124.0,124.0,124.0,1.0,125.0,Charlie,Acc,Participant_Images/631f3abc8826b6e7e8982648/631f3abc8826b6e7e8982648_Images/631f3abc8826b6e7e8982648_Image_21.jpeg,liked,2.455989137,,,,,,,,,,,,,,
631f3abc8826b6e7e8982648,,,,,,,space,1.1517,NAN,,NAN,,0.0,125.0,125.0,125.0,1.0,126.0,Charlie,Acc,Participant_Images/631f3abc8826b6e7e8982648/631f3abc8826b6e7e8982648_Images/631f3abc8826b6e7e8982648_Image_20.jpeg,liked,3.79605092,,,,,,,,,,,,,,
631f3abc8826b6e7e8982648,,,,,,,space,1.2433,NAN,,NAN,,0.0,126.0,126.0,126.0,1.0,127.0,Charlie,Acc,Participant_Images/631f3abc8826b6e7e8982648/631f3abc8826b6e7e8982648_Images/631f3abc8826b6e7e8982648_Image_28.jpeg,liked,3.562416326,,,,,,,,,,,,,,
631f3abc8826b6e7e8982648,,,,,,,space,1.704,NAN,,NAN,,0.0,127.0,127.0,127.0,1.0,128.0,Charlie,Acc,Participant_Images/631f3abc8826b6e7e8982648/631f3abc8826b6e7e8982648_Images/631f3abc8826b6e7e8982648_Image_2.jpeg,liked,2.843822497,,,,,,,,,,,,,,
631f3abc8826b6e7e8982648,,,,,,,space,3.2261,NAN,,NAN,,0.0,128.0,128.0,128.0,1.0,129.0,Charlie,Acc,Participant_Images/631f3abc8826b6e7e8982648/631f3abc8826b6e7e8982648_Images/631f3abc8826b6e7e8982648_Image_25.jpeg,liked,3.546495948,,,,,,,,,,,,,,
631f3abc8826b6e7e8982648,,,,,,,,,,,,,,,,,,,,,,,,c,0.0,space,1.6196,0.0,0.0,0.0,0.0,1.0,1.787,,,,
631f3abc8826b6e7e8982648,,,,,,,,,NAN,,NAN,,0.0,129.0,129.0,129.0,1.0,130.0,Charlie,Acc,Participant_Images/631f3abc8826b6e7e8982648/631f3abc8826b6e7e8982648_Images/631f3abc8826b6e7e8982648_Image_10.jpeg,liked,1.672012706,,,,,,,,,,,,,,
631f3abc8826b6e7e8982648,,,,,,,space,2.6029,NAN,,NAN,,0.0,130.0,130.0,130.0,1.0,131.0,Charlie,Acc,Participant_Images/631f3abc8826b6e7e8982648/631f3abc8826b6e7e8982648_Images/631f3abc8826b6e7e8982648_Image_6.jpeg,did not like,4.942172136,,,,,,,,,,,,,,
631f3abc8826b6e7e8982648,,,,,,,space,1.5112,NAN,,NAN,,0.0,131.0,131.0,131.0,1.0,132.0,Charlie,Acc,Participant_Images/631f3abc8826b6e7e8982648/631f3abc8826b6e7e8982648_Images/631f3abc8826b6e7e8982648_Image_12.jpeg,liked,2.50187214,,,,,,,,,,,,,,
631f3abc8826b6e7e8982648,,,,,,,space,1.634,NAN,,NAN,,0.0,132.0,132.0,132.0,1.0,133.0,Charlie,Acc,Participant_Images/631f3abc8826b6e7e8982648/631f3abc8826b6e7e8982648_Images/631f3abc8826b6e7e8982648_Image_13.jpeg,did not like,2.071164779,,,,,,,,,,,,,,
631f3abc8826b6e7e8982648,,,,,,,space,1.4708,NAN,,NAN,,0.0,133.0,133.0,133.0,1.0,134.0,Charlie,Acc,Participant_Images/631f3abc8826b6e7e8982648/631f3abc8826b6e7e8982648_Images/631f3abc8826b6e7e8982648_Image_26.jpeg,liked,5.336503566,,,,,,,,,,,,,,
631f3abc8826b6e7e8982648,,,,,,,,,,,,,,,,,,,,,,,,s,1.0,space,1.1006,0.0,0.0,0.0,0.0,1.0,1.5278,l,0.412,,
631f3abc8826b6e7e8982648,,,,,,,,,NAN,,NAN,,0.0,134.0,134.0,134.0,1.0,135.0,Charlie,Acc,Participant_Images/631f3abc8826b6e7e8982648/631f3abc8826b6e7e8982648_Images/631f3abc8826b6e7e8982648_Image_9.jpeg,liked,2.642157193,,,,,,,,,,,,,,
631f3abc8826b6e7e8982648,,,,,,,space,2.4012,NAN,,NAN,,0.0,135.0,135.0,135.0,1.0,136.0,Charlie,Acc,Participant_Images/631f3abc8826b6e7e8982648/631f3abc8826b6e7e8982648_Images/631f3abc8826b6e7e8982648_Image_23.jpeg,liked,4.456234322,,,,,,,,,,,,,,
631f3abc8826b6e7e8982648,,,,,,,space,2.6864,NAN,,NAN,,0.0,136.0,136.0,136.0,1.0,137.0,Charlie,Acc,Participant_Images/631f3abc8826b6e7e8982648/631f3abc8826b6e7e8982648_Images/631f3abc8826b6e7e8982648_Image_30.jpeg,liked,4.438512181,,,,,,,,,,,,,,
631f3abc8826b6e7e8982648,,,,,,,space,2.5866,NAN,,NAN,,0.0,137.0,137.0,137.0,1.0,138.0,Charlie,Acc,Participant_Images/631f3abc8826b6e7e8982648/631f3abc8826b6e7e8982648_Images/631f3abc8826b6e7e8982648_Image_14.jpeg,liked,2.682944783,,,,,,,,,,,,,,
631f3abc8826b6e7e8982648,,,,,,,space,1.4095,NAN,,NAN,,0.0,138.0,138.0,138.0,1.0,139.0,Charlie,Acc,Participant_Images/631f3abc8826b6e7e8982648/631f3abc8826b6e7e8982648_Images/631f3abc8826b6e7e8982648_Image_19.jpeg,liked,4.51984296,,,,,,,,,,,,,,
631f3abc8826b6e7e8982648,,,,,,,,,,,,,,,,,,,,,,,,s,1.0,space,3.3083,0.0,0.0,0.0,0.0,1.0,2.8949,h,0.5632,,
631f3abc8826b6e7e8982648,,,,,,,,,NAN,,NAN,,0.0,139.0,139.0,139.0,1.0,140.0,Charlie,Acc,Participant_Images/631f3abc8826b6e7e8982648/631f3abc8826b6e7e8982648_Images/631f3abc8826b6e7e8982648_Image_17.jpeg,did not like,3.195382774,,,,,,,,,,,,,,
631f3abc8826b6e7e8982648,,,,,,,space,2.3181,NAN,,NAN,,0.0,140.0,140.0,140.0,1.0,141.0,Charlie,Acc,Participant_Images/631f3abc8826b6e7e8982648/631f3abc8826b6e7e8982648_Images/631f3abc8826b6e7e8982648_Image_24.jpeg,liked,1.779333479,,,,,,,,,,,,,,
631f3abc8826b6e7e8982648,,,,,,,space,1.9928,NAN,,NAN,,0.0,141.0,141.0,141.0,1.0,142.0,Charlie,Acc,Participant_Images/631f3abc8826b6e7e8982648/631f3abc8826b6e7e8982648_Images/631f3abc8826b6e7e8982648_Image_27.jpeg,liked,4.312468682,,,,,,,,,,,,,,
631f3abc8826b6e7e8982648,,,,,,,space,0.4265,NAN,,NAN,,0.0,142.0,142.0,142.0,1.0,143.0,Charlie,Acc,Participant_Images/631f3abc8826b6e7e8982648/631f3abc8826b6e7e8982648_Images/631f3abc8826b6e7e8982648_Image_11.jpeg,did not like,4.940433059,,,,,,,,,,,,,,
631f3abc8826b6e7e8982648,,,,,,,space,0.9933,NAN,,NAN,,0.0,143.0,143.0,143.0,1.0,144.0,Charlie,Acc,Participant_Images/631f3abc8826b6e7e8982648/631f3abc8826b6e7e8982648_Images/631f3abc8826b6e7e8982648_Image_4.jpeg,liked,2.7105123,,,,,,,,,,,,,,
631f3abc8826b6e7e8982648,,,,,,,,,,,,,,,,,,,,,,,,c,0.0,space,1.2189,0.0,0.0,0.0,0.0,1.0,1.884,,,,
631f3abc8826b6e7e8982648,,,,,,,,,NAN,,NAN,,0.0,144.0,144.0,144.0,1.0,145.0,Charlie,Acc,Participant_Images/631f3abc8826b6e7e8982648/631f3abc8826b6e7e8982648_Images/631f3abc8826b6e7e8982648_Image_5.jpeg,did not like,3.602308302,,,,,,,,,,,,,,
631f3abc8826b6e7e8982648,,,,,,,space,1.1095,NAN,,NAN,,0.0,145.0,145.0,145.0,1.0,146.0,Charlie,Acc,Participant_Images/631f3abc8826b6e7e8982648/631f3abc8826b6e7e8982648_Images/631f3abc8826b6e7e8982648_Image_29.jpeg,liked,4.106391878,,,,,,,,,,,,,,
631f3abc8826b6e7e8982648,,,,,,,space,0.1928,NAN,,NAN,,0.0,146.0,146.0,146.0,1.0,147.0,Charlie,Acc,Participant_Images/631f3abc8826b6e7e8982648/631f3abc8826b6e7e8982648_Images/631f3abc8826b6e7e8982648_Image_18.jpeg,liked,3.799433026,,,,,,,,,,,,,,
631f3abc8826b6e7e8982648,,,,,,,space,0.0283,NAN,,NAN,,0.0,147.0,147.0,147.0,1.0,148.0,Charlie,Acc,Participant_Images/631f3abc8826b6e7e8982648/631f3abc8826b6e7e8982648_Images/631f3abc8826b6e7e8982648_Image_15.jpeg,did not like,5.246980764,,,,,,,,,,,,,,
631f3abc8826b6e7e8982648,,,,,,,space,2.4187,NAN,,NAN,,0.0,148.0,148.0,148.0,1.0,149.0,Charlie,Acc,Participant_Images/631f3abc8826b6e7e8982648/631f3abc8826b6e7e8982648_Images/631f3abc8826b6e7e8982648_Image_7.jpeg,liked,3.30081769,,,,,,,,,,,,,,
631f3abc8826b6e7e8982648,,,,,,,,,,,,,,,,,,,,,,,,s,1.0,space,1.5672,0.0,0.0,0.0,0.0,1.0,2.2763,l,0.3631,,
631f3abc8826b6e7e8982648,,,,,,,,,2,,6,,0.0,149.0,149.0,149.0,1.0,150.0,Charlie,Acc,Participant_Images/631f3abc8826b6e7e8982648/631f3abc8826b6e7e8982648_Images/631f3abc8826b6e7e8982648_Image_1.jpeg,did not like,1.661473164,,,,,,,,,,,,,,
631f3abc8826b6e7e8982648,,,,,,,,,,,,,,,,,,,,,,,,,,,,,,,,,,,,space,2.0071
