PROLIFIC_ID,endwelcomescreen_keys.keys,endwelcomescreen_keys.rt,endinstructionscreen_keys.keys,endinstructionscreen_keys.rt,endpartnermatch_keys.keys,endpartnermatch_keys.rt,sharenextphoto_key.keys,sharenextphoto_key.rt,salience_rating,key_resp.keys,stress_level,stresslevel_keypress.keys,entiretaskloop.thisRepN,entiretaskloop.thisTrialN,entiretaskloop.thisN,entiretaskloop.thisIndex,entiretaskloop.ran,TrialNumber,Partner,Condition,Photos,Feedback,FeedbackWait,choice_keys.keys,playlottery,resumeafterlottery_keys.keys,resumeafterlottery_keys.rt,lotteryloop.thisRepN,lotteryloop.thisTrialN,lotteryloop.thisN,lotteryloop.thisIndex,lotteryloop.ran,choice_keys.rt,lotteryguess_keys.keys,lotteryguess_keys.rt,end_screen_keys.keys,end_screen_keys.rt
6321d7404a95a42175d1243d,space,1.8961,,,,,,,,,,,,,,,,,,,,,,,,,,,,,,,,,,,
,,,,,,,,,,,,,,,,,,,,,,,,,,,,,,,,,,,,,
,,,space,12.0006,,,,,,,,,,,,,,,,,,,,,,,,,,,,,,,,,
,,,,,space,1.9244,space,0.9398,NAN,,NAN,,0,0,0,0,1,1,Riley,Acc,Participant_Images/6321d7404a95a42175d1243d/6321d7404a95a42175d1243d_Images/6321d7404a95a42175d1243d_Image_24.jpeg,liked,3.613205605,,,,,,,,,,,,,,
,,,,,,,space,0.908,NAN,,NAN,,0,1,1,1,1,2,Riley,Acc,Participant_Images/6321d7404a95a42175d1243d/6321d7404a95a42175d1243d_Images/6321d7404a95a42175d1243d_Image_22.jpeg,liked,4.988446431,,,,,,,,,,,,,,
,,,,,,,space,0.7415,NAN,,NAN,,0,2,2,2,1,3,Riley,Acc,Participant_Images/6321d7404a95a42175d1243d/6321d7404a95a42175d1243d_Images/6321d7404a95a42175d1243d_Image_15.jpeg,liked,3.470791822,,,,,,,,,,,,,,
,,,,,,,space,0.6,NAN,,NAN,,0,3,3,3,1,4,Riley,Acc,Participant_Images/6321d7404a95a42175d1243d/6321d7404a95a42175d1243d_Images/6321d7404a95a42175d1243d_Image_30.jpeg,did not like,3.820572462,,,,,,,,,,,,,,
,,,,,,,,,,,,,,,,,,,,,,,,,999,space,2.6269,0,0,0,0,1,,,,,
,,,,,,,,,NAN,,NAN,,0,4,4,4,1,5,Riley,Acc,Participant_Images/6321d7404a95a42175d1243d/6321d7404a95a42175d1243d_Images/6321d7404a95a42175d1243d_Image_19.jpeg,liked,2.455989137,,,,,,,,,,,,,,
,,,,,,,space,2.6071,NAN,,NAN,,0,5,5,5,1,6,Riley,Acc,Participant_Images/6321d7404a95a42175d1243d/6321d7404a95a42175d1243d_Images/6321d7404a95a42175d1243d_Image_14.jpeg,liked,3.79605092,,,,,,,,,,,,,,
,,,,,,,space,1.0531,NAN,,NAN,,0,6,6,6,1,7,Riley,Acc,Participant_Images/6321d7404a95a42175d1243d/6321d7404a95a42175d1243d_Images/6321d7404a95a42175d1243d_Image_8.jpeg,did not like,3.562416326,,,,,,,,,,,,,,
,,,,,,,space,3.9952,NAN,,NAN,,0,7,7,7,1,8,Riley,Acc,Participant_Images/6321d7404a95a42175d1243d/6321d7404a95a42175d1243d_Images/6321d7404a95a42175d1243d_Image_5.jpeg,liked,2.843822497,,,,,,,,,,,,,,
,,,,,,,space,1.4579,NAN,,NAN,,0,8,8,8,1,9,Riley,Acc,Participant_Images/6321d7404a95a42175d1243d/6321d7404a95a42175d1243d_Images/6321d7404a95a42175d1243d_Image_21.jpeg,liked,3.546495948,,,,,,,,,,,,,,
,,,,,,,,,,,,,,,,,,,,,,,,,999,space,1.4996,0,0,0,0,1,,,,,
,,,,,,,,,NAN,,NAN,,0,9,9,9,1,10,Riley,Acc,Participant_Images/6321d7404a95a42175d1243d/6321d7404a95a42175d1243d_Images/6321d7404a95a42175d1243d_Image_4.jpeg,liked,1.672012706,,,,,,,,,,,,,,
,,,,,,,space,1.6678,NAN,,NAN,,0,10,10,10,1,11,Riley,Acc,Participant_Images/6321d7404a95a42175d1243d/6321d7404a95a42175d1243d_Images/6321d7404a95a42175d1243d_Image_25.jpeg,liked,4.942172136,,,,,,,,,,,,,,
,,,,,,,space,1.4184,NAN,,NAN,,0,11,11,11,1,12,Riley,Acc,Participant_Images/6321d7404a95a42175d1243d/6321d7404a95a42175d1243d_Images/6321d7404a95a42175d1243d_Image_12.jpeg,did not like,2.50187214,,,,,,,,,,,,,,
,,,,,,,space,2.1395,NAN,,NAN,,0,12,12,12,1,13,Riley,Acc,Participant_Images/6321d7404a95a42175d1243d/6321d7404a95a42175d1243d_Images/6321d7404a95a42175d1243d_Image_13.jpeg,liked,2.071164779,,,,,,,,,,,,,,
,,,,,,,space,0.8361,NAN,,NAN,,0,13,13,13,1,14,Riley,Acc,Participant_Images/6321d7404a95a42175d1243d/6321d7404a95a42175d1243d_Images/6321d7404a95a42175d1243d_Image_7.jpeg,liked,5.336503566,,,,,,,,,,,,,,
,,,,,,,,,,,,,,,,,,,,,,,,,999,space,1.6072,0,0,0,0,1,,,,,
,,,,,,,,,NAN,,NAN,,0,14,14,14,1,15,Riley,Acc,Participant_Images/6321d7404a95a42175d1243d/6321d7404a95a42175d1243d_Images/6321d7404a95a42175d1243d_Image_3.jpeg,liked,2.642157193,,,,,,,,,,,,,,
,,,,,,,space,1.1087,NAN,,NAN,,0,15,15,15,1,16,Riley,Acc,Participant_Images/6321d7404a95a42175d1243d/6321d7404a95a42175d1243d_Images/6321d7404a95a42175d1243d_Image_10.jpeg,liked,4.456234322,,,,,,,,,,,,,,
,,,,,,,space,0.8867,NAN,,NAN,,0,16,16,16,1,17,Riley,Acc,Participant_Images/6321d7404a95a42175d1243d/6321d7404a95a42175d1243d_Images/6321d7404a95a42175d1243d_Image_11.jpeg,liked,4.438512181,,,,,,,,,,,,,,
,,,,,,,space,1.2419,NAN,,NAN,,0,17,17,17,1,18,Riley,Acc,Participant_Images/6321d7404a95a42175d1243d/6321d7404a95a42175d1243d_Images/6321d7404a95a42175d1243d_Image_1.jpeg,liked,2.682944783,,,,,,,,,,,,,,
,,,,,,,space,1.1853,NAN,,NAN,,0,18,18,18,1,19,Riley,Acc,Participant_Images/6321d7404a95a42175d1243d/6321d7404a95a42175d1243d_Images/6321d7404a95a42175d1243d_Image_29.jpeg,liked,4.51984296,,,,,,,,,,,,,,
,,,,,,,,,,,,,,,,,,,,,,,,c,0,space,0.9147,0,0,0,0,1,2.3606,,,,
,,,,,,,,,NAN,,NAN,,0,19,19,19,1,20,Riley,Acc,Participant_Images/6321d7404a95a42175d1243d/6321d7404a95a42175d1243d_Images/6321d7404a95a42175d1243d_Image_6.jpeg,did not like,3.195382774,,,,,,,,,,,,,,
,,,,,,,space,2.1066,NAN,,NAN,,0,20,20,20,1,21,Riley,Acc,Participant_Images/6321d7404a95a42175d1243d/6321d7404a95a42175d1243d_Images/6321d7404a95a42175d1243d_Image_9.jpeg,did not like,1.779333479,,,,,,,,,,,,,,
,,,,,,,space,2.1213,NAN,,NAN,,0,21,21,21,1,22,Riley,Acc,Participant_Images/6321d7404a95a42175d1243d/6321d7404a95a42175d1243d_Images/6321d7404a95a42175d1243d_Image_16.jpeg,liked,4.312468682,,,,,,,,,,,,,,
,,,,,,,space,1.2007,NAN,,NAN,,0,22,22,22,1,23,Riley,Acc,Participant_Images/6321d7404a95a42175d1243d/6321d7404a95a42175d1243d_Images/6321d7404a95a42175d1243d_Image_26.jpeg,did not like,4.940433059,,,,,,,,,,,,,,
,,,,,,,space,5.0313,NAN,,NAN,,0,23,23,23,1,24,Riley,Acc,Participant_Images/6321d7404a95a42175d1243d/6321d7404a95a42175d1243d_Images/6321d7404a95a42175d1243d_Image_20.jpeg,liked,2.7105123,,,,,,,,,,,,,,
,,,,,,,,,,,,,,,,,,,,,,,,s,1,space,2.0192,0,0,0,0,1,2.4823,l,2.1773,,
,,,,,,,,,NAN,,NAN,,0,24,24,24,1,25,Riley,Acc,Participant_Images/6321d7404a95a42175d1243d/6321d7404a95a42175d1243d_Images/6321d7404a95a42175d1243d_Image_28.jpeg,did not like,3.602308302,,,,,,,,,,,,,,
,,,,,,,space,5.5593,NAN,,NAN,,0,25,25,25,1,26,Riley,Acc,Participant_Images/6321d7404a95a42175d1243d/6321d7404a95a42175d1243d_Images/6321d7404a95a42175d1243d_Image_18.jpeg,liked,4.106391878,,,,,,,,,,,,,,
,,,,,,,space,2.3495,NAN,,NAN,,0,26,26,26,1,27,Riley,Acc,Participant_Images/6321d7404a95a42175d1243d/6321d7404a95a42175d1243d_Images/6321d7404a95a42175d1243d_Image_17.jpeg,did not like,3.799433026,,,,,,,,,,,,,,
,,,,,,,space,2.8942,NAN,,NAN,,0,27,27,27,1,28,Riley,Acc,Participant_Images/6321d7404a95a42175d1243d/6321d7404a95a42175d1243d_Images/6321d7404a95a42175d1243d_Image_23.jpeg,liked,5.246980764,,,,,,,,,,,,,,
,,,,,,,space,2.7161,NAN,,NAN,,0,28,28,28,1,29,Riley,Acc,Participant_Images/6321d7404a95a42175d1243d/6321d7404a95a42175d1243d_Images/6321d7404a95a42175d1243d_Image_27.jpeg,did not like,3.30081769,,,,,,,,,,,,,,
,,,,,,,,,,,,,,,,,,,,,,,,s,1,space,1.1504,0,0,0,0,1,2.9553,,,,
,,,,,,,,,2,,4,,0,29,29,29,1,30,Riley,Acc,Participant_Images/6321d7404a95a42175d1243d/6321d7404a95a42175d1243d_Images/6321d7404a95a42175d1243d_Image_2.jpeg,liked,1.661473164,,,,,,,,,,,,,,
,,,,,space,1.5805,space,2.5371,NAN,,NAN,,0,30,30,30,1,31,Alex,Rej,Participant_Images/6321d7404a95a42175d1243d/6321d7404a95a42175d1243d_Images/6321d7404a95a42175d1243d_Image_17.jpeg,did not like,3.613205605,,,,,,,,,,,,,,
,,,,,,,space,2.5243,NAN,,NAN,,0,31,31,31,1,32,Alex,Rej,Participant_Images/6321d7404a95a42175d1243d/6321d7404a95a42175d1243d_Images/6321d7404a95a42175d1243d_Image_18.jpeg,liked,4.988446431,,,,,,,,,,,,,,
,,,,,,,space,3.0194,NAN,,NAN,,0,32,32,32,1,33,Alex,Rej,Participant_Images/6321d7404a95a42175d1243d/6321d7404a95a42175d1243d_Images/6321d7404a95a42175d1243d_Image_3.jpeg,did not like,3.470791822,,,,,,,,,,,,,,
,,,,,,,space,1.5871,NAN,,NAN,,0,33,33,33,1,34,Alex,Rej,Participant_Images/6321d7404a95a42175d1243d/6321d7404a95a42175d1243d_Images/6321d7404a95a42175d1243d_Image_24.jpeg,did not like,3.820572462,,,,,,,,,,,,,,
,,,,,,,,,,,,,,,,,,,,,,,,s,1,space,1.2379,0,0,0,0,1,2.6143,h,1.2714,,
,,,,,,,,,NAN,,NAN,,0,34,34,34,1,35,Alex,Rej,Participant_Images/6321d7404a95a42175d1243d/6321d7404a95a42175d1243d_Images/6321d7404a95a42175d1243d_Image_4.jpeg,did not like,2.455989137,,,,,,,,,,,,,,
,,,,,,,space,1.8718,NAN,,NAN,,0,35,35,35,1,36,Alex,Rej,Participant_Images/6321d7404a95a42175d1243d/6321d7404a95a42175d1243d_Images/6321d7404a95a42175d1243d_Image_30.jpeg,did not like,3.79605092,,,,,,,,,,,,,,
,,,,,,,space,1.3364,NAN,,NAN,,0,36,36,36,1,37,Alex,Rej,Participant_Images/6321d7404a95a42175d1243d/6321d7404a95a42175d1243d_Images/6321d7404a95a42175d1243d_Image_23.jpeg,liked,3.562416326,,,,,,,,,,,,,,
,,,,,,,space,1.7203,NAN,,NAN,,0,37,37,37,1,38,Alex,Rej,Participant_Images/6321d7404a95a42175d1243d/6321d7404a95a42175d1243d_Images/6321d7404a95a42175d1243d_Image_29.jpeg,liked,2.843822497,,,,,,,,,,,,,,
,,,,,,,space,2.2939,NAN,,NAN,,0,38,38,38,1,39,Alex,Rej,Participant_Images/6321d7404a95a42175d1243d/6321d7404a95a42175d1243d_Images/6321d7404a95a42175d1243d_Image_12.jpeg,liked,3.546495948,,,,,,,,,,,,,,
,,,,,,,,,,,,,,,,,,,,,,,,c,0,space,1.2956,0,0,0,0,1,2.8042,,,,
,,,,,,,,,NAN,,NAN,,0,39,39,39,1,40,Alex,Rej,Participant_Images/6321d7404a95a42175d1243d/6321d7404a95a42175d1243d_Images/6321d7404a95a42175d1243d_Image_7.jpeg,liked,1.672012706,,,,,,,,,,,,,,
,,,,,,,space,0.8652,NAN,,NAN,,0,40,40,40,1,41,Alex,Rej,Participant_Images/6321d7404a95a42175d1243d/6321d7404a95a42175d1243d_Images/6321d7404a95a42175d1243d_Image_28.jpeg,did not like,4.942172136,,,,,,,,,,,,,,
,,,,,,,space,0.8659,NAN,,NAN,,0,41,41,41,1,42,Alex,Rej,Participant_Images/6321d7404a95a42175d1243d/6321d7404a95a42175d1243d_Images/6321d7404a95a42175d1243d_Image_13.jpeg,did not like,2.50187214,,,,,,,,,,,,,,
,,,,,,,space,1.3659,NAN,,NAN,,0,42,42,42,1,43,Alex,Rej,Participant_Images/6321d7404a95a42175d1243d/6321d7404a95a42175d1243d_Images/6321d7404a95a42175d1243d_Image_8.jpeg,did not like,2.071164779,,,,,,,,,,,,,,
,,,,,,,space,1.0724,NAN,,NAN,,0,43,43,43,1,44,Alex,Rej,Participant_Images/6321d7404a95a42175d1243d/6321d7404a95a42175d1243d_Images/6321d7404a95a42175d1243d_Image_27.jpeg,did not like,5.336503566,,,,,,,,,,,,,,
,,,,,,,,,,,,,,,,,,,,,,,,s,1,space,1.0233,0,0,0,0,1,3.0144,l,2.4004,,
,,,,,,,,,NAN,,NAN,,0,44,44,44,1,45,Alex,Rej,Participant_Images/6321d7404a95a42175d1243d/6321d7404a95a42175d1243d_Images/6321d7404a95a42175d1243d_Image_25.jpeg,did not like,2.642157193,,,,,,,,,,,,,,
,,,,,,,space,0.5611,NAN,,NAN,,0,45,45,45,1,46,Alex,Rej,Participant_Images/6321d7404a95a42175d1243d/6321d7404a95a42175d1243d_Images/6321d7404a95a42175d1243d_Image_6.jpeg,did not like,4.456234322,,,,,,,,,,,,,,
,,,,,,,space,1.4267,NAN,,NAN,,0,46,46,46,1,47,Alex,Rej,Participant_Images/6321d7404a95a42175d1243d/6321d7404a95a42175d1243d_Images/6321d7404a95a42175d1243d_Image_10.jpeg,did not like,4.438512181,,,,,,,,,,,,,,
,,,,,,,space,1.5173,NAN,,NAN,,0,47,47,47,1,48,Alex,Rej,Participant_Images/6321d7404a95a42175d1243d/6321d7404a95a42175d1243d_Images/6321d7404a95a42175d1243d_Image_9.jpeg,did not like,2.682944783,,,,,,,,,,,,,,
,,,,,,,space,1.8132,NAN,,NAN,,0,48,48,48,1,49,Alex,Rej,Participant_Images/6321d7404a95a42175d1243d/6321d7404a95a42175d1243d_Images/6321d7404a95a42175d1243d_Image_11.jpeg,did not like,4.51984296,,,,,,,,,,,,,,
,,,,,,,,,,,,,,,,,,,,,,,,,999,space,1.4041,0,0,0,0,1,,,,,
,,,,,,,,,NAN,,NAN,,0,49,49,49,1,50,Alex,Rej,Participant_Images/6321d7404a95a42175d1243d/6321d7404a95a42175d1243d_Images/6321d7404a95a42175d1243d_Image_14.jpeg,did not like,3.195382774,,,,,,,,,,,,,,
,,,,,,,space,1.6783,NAN,,NAN,,0,50,50,50,1,51,Alex,Rej,Participant_Images/6321d7404a95a42175d1243d/6321d7404a95a42175d1243d_Images/6321d7404a95a42175d1243d_Image_1.jpeg,did not like,1.779333479,,,,,,,,,,,,,,
,,,,,,,space,0.8756,NAN,,NAN,,0,51,51,51,1,52,Alex,Rej,Participant_Images/6321d7404a95a42175d1243d/6321d7404a95a42175d1243d_Images/6321d7404a95a42175d1243d_Image_15.jpeg,liked,4.312468682,,,,,,,,,,,,,,
,,,,,,,space,1.5769,NAN,,NAN,,0,52,52,52,1,53,Alex,Rej,Participant_Images/6321d7404a95a42175d1243d/6321d7404a95a42175d1243d_Images/6321d7404a95a42175d1243d_Image_16.jpeg,liked,4.940433059,,,,,,,,,,,,,,
,,,,,,,space,1.6814,NAN,,NAN,,0,53,53,53,1,54,Alex,Rej,Participant_Images/6321d7404a95a42175d1243d/6321d7404a95a42175d1243d_Images/6321d7404a95a42175d1243d_Image_26.jpeg,did not like,2.7105123,,,,,,,,,,,,,,
,,,,,,,,,,,,,,,,,,,,,,,,s,1,space,1.2616,0,0,0,0,1,1.7349,h,1.2917,,
,,,,,,,,,NAN,,NAN,,0,54,54,54,1,55,Alex,Rej,Participant_Images/6321d7404a95a42175d1243d/6321d7404a95a42175d1243d_Images/6321d7404a95a42175d1243d_Image_20.jpeg,liked,3.602308302,,,,,,,,,,,,,,
,,,,,,,space,0.8354,NAN,,NAN,,0,55,55,55,1,56,Alex,Rej,Participant_Images/6321d7404a95a42175d1243d/6321d7404a95a42175d1243d_Images/6321d7404a95a42175d1243d_Image_22.jpeg,liked,4.106391878,,,,,,,,,,,,,,
,,,,,,,space,2.0533,NAN,,NAN,,0,56,56,56,1,57,Alex,Rej,Participant_Images/6321d7404a95a42175d1243d/6321d7404a95a42175d1243d_Images/6321d7404a95a42175d1243d_Image_19.jpeg,did not like,3.799433026,,,,,,,,,,,,,,
,,,,,,,space,1.3708,NAN,,NAN,,0,57,57,57,1,58,Alex,Rej,Participant_Images/6321d7404a95a42175d1243d/6321d7404a95a42175d1243d_Images/6321d7404a95a42175d1243d_Image_2.jpeg,did not like,5.246980764,,,,,,,,,,,,,,
,,,,,,,space,5.8258,NAN,,NAN,,0,58,58,58,1,59,Alex,Rej,Participant_Images/6321d7404a95a42175d1243d/6321d7404a95a42175d1243d_Images/6321d7404a95a42175d1243d_Image_5.jpeg,did not like,3.30081769,,,,,,,,,,,,,,
,,,,,,,,,,,,,,,,,,,,,,,,,999,space,0.6159,0,0,0,0,1,,,,,
,,,,,,,,,1,,1,,0,59,59,59,1,60,Alex,Rej,Participant_Images/6321d7404a95a42175d1243d/6321d7404a95a42175d1243d_Images/6321d7404a95a42175d1243d_Image_21.jpeg,did not like,1.661473164,,,,,,,,,,,,,,
,,,,,space,1.9758,space,1.7155,NAN,,NAN,,0,60,60,60,1,61,Taylor,Rej,Participant_Images/6321d7404a95a42175d1243d/6321d7404a95a42175d1243d_Images/6321d7404a95a42175d1243d_Image_10.jpeg,did not like,3.613205605,,,,,,,,,,,,,,
,,,,,,,space,1.8037,NAN,,NAN,,0,61,61,61,1,62,Taylor,Rej,Participant_Images/6321d7404a95a42175d1243d/6321d7404a95a42175d1243d_Images/6321d7404a95a42175d1243d_Image_28.jpeg,did not like,4.988446431,,,,,,,,,,,,,,
,,,,,,,space,0.5868,NAN,,NAN,,0,62,62,62,1,63,Taylor,Rej,Participant_Images/6321d7404a95a42175d1243d/6321d7404a95a42175d1243d_Images/6321d7404a95a42175d1243d_Image_22.jpeg,liked,3.470791822,,,,,,,,,,,,,,
,,,,,,,space,3.6929,NAN,,NAN,,0,63,63,63,1,64,Taylor,Rej,Participant_Images/6321d7404a95a42175d1243d/6321d7404a95a42175d1243d_Images/6321d7404a95a42175d1243d_Image_29.jpeg,did not like,3.820572462,,,,,,,,,,,,,,
,,,,,,,,,,,,,,,,,,,,,,,,s,1,space,1.4586,0,0,0,0,1,2.3898,l,1.6896,,
,,,,,,,,,NAN,,NAN,,0,64,64,64,1,65,Taylor,Rej,Participant_Images/6321d7404a95a42175d1243d/6321d7404a95a42175d1243d_Images/6321d7404a95a42175d1243d_Image_20.jpeg,did not like,2.455989137,,,,,,,,,,,,,,
,,,,,,,space,1.4592,NAN,,NAN,,0,65,65,65,1,66,Taylor,Rej,Participant_Images/6321d7404a95a42175d1243d/6321d7404a95a42175d1243d_Images/6321d7404a95a42175d1243d_Image_26.jpeg,did not like,3.79605092,,,,,,,,,,,,,,
,,,,,,,space,1.3481,NAN,,NAN,,0,66,66,66,1,67,Taylor,Rej,Participant_Images/6321d7404a95a42175d1243d/6321d7404a95a42175d1243d_Images/6321d7404a95a42175d1243d_Image_27.jpeg,did not like,3.562416326,,,,,,,,,,,,,,
,,,,,,,space,1.4295,NAN,,NAN,,0,67,67,67,1,68,Taylor,Rej,Participant_Images/6321d7404a95a42175d1243d/6321d7404a95a42175d1243d_Images/6321d7404a95a42175d1243d_Image_3.jpeg,did not like,2.843822497,,,,,,,,,,,,,,
,,,,,,,space,0.0119,NAN,,NAN,,0,68,68,68,1,69,Taylor,Rej,Participant_Images/6321d7404a95a42175d1243d/6321d7404a95a42175d1243d_Images/6321d7404a95a42175d1243d_Image_15.jpeg,liked,3.546495948,,,,,,,,,,,,,,
,,,,,,,,,,,,,,,,,,,,,,,,c,0,space,2.3438,0,0,0,0,1,2.3193,,,,
,,,,,,,,,NAN,,NAN,,0,69,69,69,1,70,Taylor,Rej,Participant_Images/6321d7404a95a42175d1243d/6321d7404a95a42175d1243d_Images/6321d7404a95a42175d1243d_Image_6.jpeg,did not like,1.672012706,,,,,,,,,,,,,,
,,,,,,,space,1.9,NAN,,NAN,,0,70,70,70,1,71,Taylor,Rej,Participant_Images/6321d7404a95a42175d1243d/6321d7404a95a42175d1243d_Images/6321d7404a95a42175d1243d_Image_21.jpeg,liked,4.942172136,,,,,,,,,,,,,,
,,,,,,,space,2.1105,NAN,,NAN,,0,71,71,71,1,72,Taylor,Rej,Participant_Images/6321d7404a95a42175d1243d/6321d7404a95a42175d1243d_Images/6321d7404a95a42175d1243d_Image_25.jpeg,liked,2.50187214,,,,,,,,,,,,,,
,,,,,,,space,1.2806,NAN,,NAN,,0,72,72,72,1,73,Taylor,Rej,Participant_Images/6321d7404a95a42175d1243d/6321d7404a95a42175d1243d_Images/6321d7404a95a42175d1243d_Image_19.jpeg,did not like,2.071164779,,,,,,,,,,,,,,
,,,,,,,space,1.7972,NAN,,NAN,,0,73,73,73,1,74,Taylor,Rej,Participant_Images/6321d7404a95a42175d1243d/6321d7404a95a42175d1243d_Images/6321d7404a95a42175d1243d_Image_11.jpeg,did not like,5.336503566,,,,,,,,,,,,,,
,,,,,,,,,,,,,,,,,,,,,,,,s,1,space,3.0175,0,0,0,0,1,1.5409,h,1.3005,,
,,,,,,,,,NAN,,NAN,,0,74,74,74,1,75,Taylor,Rej,Participant_Images/6321d7404a95a42175d1243d/6321d7404a95a42175d1243d_Images/6321d7404a95a42175d1243d_Image_2.jpeg,liked,2.642157193,,,,,,,,,,,,,,
,,,,,,,space,1.6773,NAN,,NAN,,0,75,75,75,1,76,Taylor,Rej,Participant_Images/6321d7404a95a42175d1243d/6321d7404a95a42175d1243d_Images/6321d7404a95a42175d1243d_Image_30.jpeg,did not like,4.456234322,,,,,,,,,,,,,,
,,,,,,,space,1.7791,NAN,,NAN,,0,76,76,76,1,77,Taylor,Rej,Participant_Images/6321d7404a95a42175d1243d/6321d7404a95a42175d1243d_Images/6321d7404a95a42175d1243d_Image_1.jpeg,did not like,4.438512181,,,,,,,,,,,,,,
,,,,,,,space,2.2906,NAN,,NAN,,0,77,77,77,1,78,Taylor,Rej,Participant_Images/6321d7404a95a42175d1243d/6321d7404a95a42175d1243d_Images/6321d7404a95a42175d1243d_Image_9.jpeg,liked,2.682944783,,,,,,,,,,,,,,
,,,,,,,space,1.5943,NAN,,NAN,,0,78,78,78,1,79,Taylor,Rej,Participant_Images/6321d7404a95a42175d1243d/6321d7404a95a42175d1243d_Images/6321d7404a95a42175d1243d_Image_24.jpeg,did not like,4.51984296,,,,,,,,,,,,,,
,,,,,,,,,,,,,,,,,,,,,,,,,999,space,1.6243,0,0,0,0,1,,,,,
,,,,,,,,,NAN,,NAN,,0,79,79,79,1,80,Taylor,Rej,Participant_Images/6321d7404a95a42175d1243d/6321d7404a95a42175d1243d_Images/6321d7404a95a42175d1243d_Image_8.jpeg,did not like,3.195382774,,,,,,,,,,,,,,
,,,,,,,space,5.1421,NAN,,NAN,,0,80,80,80,1,81,Taylor,Rej,Participant_Images/6321d7404a95a42175d1243d/6321d7404a95a42175d1243d_Images/6321d7404a95a42175d1243d_Image_14.jpeg,did not like,1.779333479,,,,,,,,,,,,,,
,,,,,,,space,1.6957,NAN,,NAN,,0,81,81,81,1,82,Taylor,Rej,Participant_Images/6321d7404a95a42175d1243d/6321d7404a95a42175d1243d_Images/6321d7404a95a42175d1243d_Image_16.jpeg,liked,4.312468682,,,,,,,,,,,,,,
,,,,,,,space,1.489,NAN,,NAN,,0,82,82,82,1,83,Taylor,Rej,Participant_Images/6321d7404a95a42175d1243d/6321d7404a95a42175d1243d_Images/6321d7404a95a42175d1243d_Image_12.jpeg,did not like,4.940433059,,,,,,,,,,,,,,
,,,,,,,space,6.1646,NAN,,NAN,,0,83,83,83,1,84,Taylor,Rej,Participant_Images/6321d7404a95a42175d1243d/6321d7404a95a42175d1243d_Images/6321d7404a95a42175d1243d_Image_23.jpeg,did not like,2.7105123,,,,,,,,,,,,,,
,,,,,,,,,,,,,,,,,,,,,,,,c,0,space,1.538,0,0,0,0,1,1.549,,,,
,,,,,,,,,NAN,,NAN,,0,84,84,84,1,85,Taylor,Rej,Participant_Images/6321d7404a95a42175d1243d/6321d7404a95a42175d1243d_Images/6321d7404a95a42175d1243d_Image_13.jpeg,liked,3.602308302,,,,,,,,,,,,,,
,,,,,,,space,2.6287,NAN,,NAN,,0,85,85,85,1,86,Taylor,Rej,Participant_Images/6321d7404a95a42175d1243d/6321d7404a95a42175d1243d_Images/6321d7404a95a42175d1243d_Image_17.jpeg,liked,4.106391878,,,,,,,,,,,,,,
,,,,,,,space,1.9418,NAN,,NAN,,0,86,86,86,1,87,Taylor,Rej,Participant_Images/6321d7404a95a42175d1243d/6321d7404a95a42175d1243d_Images/6321d7404a95a42175d1243d_Image_7.jpeg,did not like,3.799433026,,,,,,,,,,,,,,
,,,,,,,space,1.5125,NAN,,NAN,,0,87,87,87,1,88,Taylor,Rej,Participant_Images/6321d7404a95a42175d1243d/6321d7404a95a42175d1243d_Images/6321d7404a95a42175d1243d_Image_18.jpeg,did not like,5.246980764,,,,,,,,,,,,,,
,,,,,,,space,2.7458,NAN,,NAN,,0,88,88,88,1,89,Taylor,Rej,Participant_Images/6321d7404a95a42175d1243d/6321d7404a95a42175d1243d_Images/6321d7404a95a42175d1243d_Image_5.jpeg,did not like,3.30081769,,,,,,,,,,,,,,
,,,,,,,,,,,,,,,,,,,,,,,,s,1,space,1.4266,0,0,0,0,1,1.333,l,0.5873,,
,,,,,,,,,1,,1,,0,89,89,89,1,90,Taylor,Rej,Participant_Images/6321d7404a95a42175d1243d/6321d7404a95a42175d1243d_Images/6321d7404a95a42175d1243d_Image_4.jpeg,did not like,1.661473164,,,,,,,,,,,,,,
,,,,,space,5.7459,space,2.0157,NAN,,NAN,,0,90,90,90,1,91,Charlie,Neutral,Participant_Images/6321d7404a95a42175d1243d/6321d7404a95a42175d1243d_Images/6321d7404a95a42175d1243d_Image_17.jpeg,liked,3.613205605,,,,,,,,,,,,,,
,,,,,,,space,2.6941,NAN,,NAN,,0,91,91,91,1,92,Charlie,Neutral,Participant_Images/6321d7404a95a42175d1243d/6321d7404a95a42175d1243d_Images/6321d7404a95a42175d1243d_Image_5.jpeg,did not like,4.988446431,,,,,,,,,,,,,,
,,,,,,,space,1.3737,NAN,,NAN,,0,92,92,92,1,93,Charlie,Neutral,Participant_Images/6321d7404a95a42175d1243d/6321d7404a95a42175d1243d_Images/6321d7404a95a42175d1243d_Image_6.jpeg,liked,3.470791822,,,,,,,,,,,,,,
,,,,,,,space,1.7438,NAN,,NAN,,0,93,93,93,1,94,Charlie,Neutral,Participant_Images/6321d7404a95a42175d1243d/6321d7404a95a42175d1243d_Images/6321d7404a95a42175d1243d_Image_16.jpeg,liked,3.820572462,,,,,,,,,,,,,,
,,,,,,,,,,,,,,,,,,,,,,,,c,0,space,2.0357,0,0,0,0,1,2.0602,,,,
,,,,,,,,,NAN,,NAN,,0,94,94,94,1,95,Charlie,Neutral,Participant_Images/6321d7404a95a42175d1243d/6321d7404a95a42175d1243d_Images/6321d7404a95a42175d1243d_Image_23.jpeg,liked,2.455989137,,,,,,,,,,,,,,
,,,,,,,space,1.7108,NAN,,NAN,,0,95,95,95,1,96,Charlie,Neutral,Participant_Images/6321d7404a95a42175d1243d/6321d7404a95a42175d1243d_Images/6321d7404a95a42175d1243d_Image_18.jpeg,liked,3.79605092,,,,,,,,,,,,,,
,,,,,,,space,2.0406,NAN,,NAN,,0,96,96,96,1,97,Charlie,Neutral,Participant_Images/6321d7404a95a42175d1243d/6321d7404a95a42175d1243d_Images/6321d7404a95a42175d1243d_Image_7.jpeg,liked,3.562416326,,,,,,,,,,,,,,
,,,,,,,space,3.8372,NAN,,NAN,,0,97,97,97,1,98,Charlie,Neutral,Participant_Images/6321d7404a95a42175d1243d/6321d7404a95a42175d1243d_Images/6321d7404a95a42175d1243d_Image_27.jpeg,did not like,2.843822497,,,,,,,,,,,,,,
,,,,,,,space,2.7109,NAN,,NAN,,0,98,98,98,1,99,Charlie,Neutral,Participant_Images/6321d7404a95a42175d1243d/6321d7404a95a42175d1243d_Images/6321d7404a95a42175d1243d_Image_24.jpeg,liked,3.546495948,,,,,,,,,,,,,,
,,,,,,,,,,,,,,,,,,,,,,,,s,1,space,1.4862,0,0,0,0,1,1.4788,l,1.4802,,
,,,,,,,,,NAN,,NAN,,0,99,99,99,1,100,Charlie,Neutral,Participant_Images/6321d7404a95a42175d1243d/6321d7404a95a42175d1243d_Images/6321d7404a95a42175d1243d_Image_19.jpeg,did not like,1.672012706,,,,,,,,,,,,,,
,,,,,,,space,2.7404,NAN,,NAN,,0,100,100,100,1,101,Charlie,Neutral,Participant_Images/6321d7404a95a42175d1243d/6321d7404a95a42175d1243d_Images/6321d7404a95a42175d1243d_Image_11.jpeg,did not like,4.942172136,,,,,,,,,,,,,,
,,,,,,,space,2.9211,NAN,,NAN,,0,101,101,101,1,102,Charlie,Neutral,Participant_Images/6321d7404a95a42175d1243d/6321d7404a95a42175d1243d_Images/6321d7404a95a42175d1243d_Image_28.jpeg,liked,2.50187214,,,,,,,,,,,,,,
,,,,,,,space,1.7389,NAN,,NAN,,0,102,102,102,1,103,Charlie,Neutral,Participant_Images/6321d7404a95a42175d1243d/6321d7404a95a42175d1243d_Images/6321d7404a95a42175d1243d_Image_13.jpeg,did not like,2.071164779,,,,,,,,,,,,,,
,,,,,,,space,1.3345,NAN,,NAN,,0,103,103,103,1,104,Charlie,Neutral,Participant_Images/6321d7404a95a42175d1243d/6321d7404a95a42175d1243d_Images/6321d7404a95a42175d1243d_Image_22.jpeg,did not like,5.336503566,,,,,,,,,,,,,,
,,,,,,,,,,,,,,,,,,,,,,,,c,0,space,11.004,0,0,0,0,1,1.5855,,,,
,,,,,,,,,NAN,,NAN,,0,104,104,104,1,105,Charlie,Neutral,Participant_Images/6321d7404a95a42175d1243d/6321d7404a95a42175d1243d_Images/6321d7404a95a42175d1243d_Image_8.jpeg,liked,2.642157193,,,,,,,,,,,,,,
,,,,,,,space,2.0491,NAN,,NAN,,0,105,105,105,1,106,Charlie,Neutral,Participant_Images/6321d7404a95a42175d1243d/6321d7404a95a42175d1243d_Images/6321d7404a95a42175d1243d_Image_2.jpeg,liked,4.456234322,,,,,,,,,,,,,,
,,,,,,,space,0.2671,NAN,,NAN,,0,106,106,106,1,107,Charlie,Neutral,Participant_Images/6321d7404a95a42175d1243d/6321d7404a95a42175d1243d_Images/6321d7404a95a42175d1243d_Image_1.jpeg,liked,4.438512181,,,,,,,,,,,,,,
,,,,,,,space,2.5514,NAN,,NAN,,0,107,107,107,1,108,Charlie,Neutral,Participant_Images/6321d7404a95a42175d1243d/6321d7404a95a42175d1243d_Images/6321d7404a95a42175d1243d_Image_12.jpeg,liked,2.682944783,,,,,,,,,,,,,,
,,,,,,,space,2.0654,NAN,,NAN,,0,108,108,108,1,109,Charlie,Neutral,Participant_Images/6321d7404a95a42175d1243d/6321d7404a95a42175d1243d_Images/6321d7404a95a42175d1243d_Image_20.jpeg,did not like,4.51984296,,,,,,,,,,,,,,
,,,,,,,,,,,,,,,,,,,,,,,,s,1,space,1.2968,0,0,0,0,1,2.9797,h,1.5586,,
,,,,,,,,,NAN,,NAN,,0,109,109,109,1,110,Charlie,Neutral,Participant_Images/6321d7404a95a42175d1243d/6321d7404a95a42175d1243d_Images/6321d7404a95a42175d1243d_Image_21.jpeg,did not like,3.195382774,,,,,,,,,,,,,,
,,,,,,,space,6.6137,NAN,,NAN,,0,110,110,110,1,111,Charlie,Neutral,Participant_Images/6321d7404a95a42175d1243d/6321d7404a95a42175d1243d_Images/6321d7404a95a42175d1243d_Image_25.jpeg,did not like,1.779333479,,,,,,,,,,,,,,
,,,,,,,space,1.4286,NAN,,NAN,,0,111,111,111,1,112,Charlie,Neutral,Participant_Images/6321d7404a95a42175d1243d/6321d7404a95a42175d1243d_Images/6321d7404a95a42175d1243d_Image_26.jpeg,liked,4.312468682,,,,,,,,,,,,,,
,,,,,,,space,4.8088,NAN,,NAN,,0,112,112,112,1,113,Charlie,Neutral,Participant_Images/6321d7404a95a42175d1243d/6321d7404a95a42175d1243d_Images/6321d7404a95a42175d1243d_Image_30.jpeg,did not like,4.940433059,,,,,,,,,,,,,,
,,,,,,,space,4.0234,NAN,,NAN,,0,113,113,113,1,114,Charlie,Neutral,Participant_Images/6321d7404a95a42175d1243d/6321d7404a95a42175d1243d_Images/6321d7404a95a42175d1243d_Image_15.jpeg,did not like,2.7105123,,,,,,,,,,,,,,
,,,,,,,,,,,,,,,,,,,,,,,,,999,space,2.8252,0,0,0,0,1,,,,,
,,,,,,,,,NAN,,NAN,,0,114,114,114,1,115,Charlie,Neutral,Participant_Images/6321d7404a95a42175d1243d/6321d7404a95a42175d1243d_Images/6321d7404a95a42175d1243d_Image_4.jpeg,liked,3.602308302,,,,,,,,,,,,,,
,,,,,,,space,1.5239,NAN,,NAN,,0,115,115,115,1,116,Charlie,Neutral,Participant_Images/6321d7404a95a42175d1243d/6321d7404a95a42175d1243d_Images/6321d7404a95a42175d1243d_Image_14.jpeg,did not like,4.106391878,,,,,,,,,,,,,,
,,,,,,,space,3.4017,NAN,,NAN,,0,116,116,116,1,117,Charlie,Neutral,Participant_Images/6321d7404a95a42175d1243d/6321d7404a95a42175d1243d_Images/6321d7404a95a42175d1243d_Image_9.jpeg,did not like,3.799433026,,,,,,,,,,,,,,
,,,,,,,space,3.1428,NAN,,NAN,,0,117,117,117,1,118,Charlie,Neutral,Participant_Images/6321d7404a95a42175d1243d/6321d7404a95a42175d1243d_Images/6321d7404a95a42175d1243d_Image_29.jpeg,did not like,5.246980764,,,,,,,,,,,,,,
,,,,,,,space,3.4778,NAN,,NAN,,0,118,118,118,1,119,Charlie,Neutral,Participant_Images/6321d7404a95a42175d1243d/6321d7404a95a42175d1243d_Images/6321d7404a95a42175d1243d_Image_10.jpeg,did not like,3.30081769,,,,,,,,,,,,,,
,,,,,,,,,,,,,,,,,,,,,,,,,999,space,1.4985,0,0,0,0,1,,,,,
,,,,,,,,,1,,1,,0,119,119,119,1,120,Charlie,Neutral,Participant_Images/6321d7404a95a42175d1243d/6321d7404a95a42175d1243d_Images/6321d7404a95a42175d1243d_Image_3.jpeg,liked,1.661473164,,,,,,,,,,,,,,
,,,,,space,2.3906,space,0.914,NAN,,NAN,,0,120,120,120,1,121,Sam,Acc,Participant_Images/6321d7404a95a42175d1243d/6321d7404a95a42175d1243d_Images/6321d7404a95a42175d1243d_Image_8.jpeg,liked,3.613205605,,,,,,,,,,,,,,
,,,,,,,space,0.3657,NAN,,NAN,,0,121,121,121,1,122,Sam,Acc,Participant_Images/6321d7404a95a42175d1243d/6321d7404a95a42175d1243d_Images/6321d7404a95a42175d1243d_Image_17.jpeg,liked,4.988446431,,,,,,,,,,,,,,
,,,,,,,space,1.7449,NAN,,NAN,,0,122,122,122,1,123,Sam,Acc,Participant_Images/6321d7404a95a42175d1243d/6321d7404a95a42175d1243d_Images/6321d7404a95a42175d1243d_Image_23.jpeg,did not like,3.470791822,,,,,,,,,,,,,,
,,,,,,,space,3.0089,NAN,,NAN,,0,123,123,123,1,124,Sam,Acc,Participant_Images/6321d7404a95a42175d1243d/6321d7404a95a42175d1243d_Images/6321d7404a95a42175d1243d_Image_25.jpeg,liked,3.820572462,,,,,,,,,,,,,,
,,,,,,,,,,,,,,,,,,,,,,,,,999,space,0.7846,0,0,0,0,1,,,,,
,,,,,,,,,NAN,,NAN,,0,124,124,124,1,125,Sam,Acc,Participant_Images/6321d7404a95a42175d1243d/6321d7404a95a42175d1243d_Images/6321d7404a95a42175d1243d_Image_22.jpeg,did not like,2.455989137,,,,,,,,,,,,,,
,,,,,,,space,1.7411,NAN,,NAN,,0,125,125,125,1,126,Sam,Acc,Participant_Images/6321d7404a95a42175d1243d/6321d7404a95a42175d1243d_Images/6321d7404a95a42175d1243d_Image_7.jpeg,liked,3.79605092,,,,,,,,,,,,,,
,,,,,,,space,2.8767,NAN,,NAN,,0,126,126,126,1,127,Sam,Acc,Participant_Images/6321d7404a95a42175d1243d/6321d7404a95a42175d1243d_Images/6321d7404a95a42175d1243d_Image_28.jpeg,liked,3.562416326,,,,,,,,,,,,,,
,,,,,,,space,1.7,NAN,,NAN,,0,127,127,127,1,128,Sam,Acc,Participant_Images/6321d7404a95a42175d1243d/6321d7404a95a42175d1243d_Images/6321d7404a95a42175d1243d_Image_1.jpeg,liked,2.843822497,,,,,,,,,,,,,,
,,,,,,,space,3.5149,NAN,,NAN,,0,128,128,128,1,129,Sam,Acc,Participant_Images/6321d7404a95a42175d1243d/6321d7404a95a42175d1243d_Images/6321d7404a95a42175d1243d_Image_2.jpeg,liked,3.546495948,,,,,,,,,,,,,,
,,,,,,,,,,,,,,,,,,,,,,,,,999,space,0.0598,0,0,0,0,1,,,,,
,,,,,,,,,NAN,,NAN,,0,129,129,129,1,130,Sam,Acc,Participant_Images/6321d7404a95a42175d1243d/6321d7404a95a42175d1243d_Images/6321d7404a95a42175d1243d_Image_18.jpeg,did not like,1.672012706,,,,,,,,,,,,,,
,,,,,,,space,4.9979,NAN,,NAN,,0,130,130,130,1,131,Sam,Acc,Participant_Images/6321d7404a95a42175d1243d/6321d7404a95a42175d1243d_Images/6321d7404a95a42175d1243d_Image_5.jpeg,liked,4.942172136,,,,,,,,,,,,,,
,,,,,,,space,4.4444,NAN,,NAN,,0,131,131,131,1,132,Sam,Acc,Participant_Images/6321d7404a95a42175d1243d/6321d7404a95a42175d1243d_Images/6321d7404a95a42175d1243d_Image_4.jpeg,liked,2.50187214,,,,,,,,,,,,,,
,,,,,,,space,2.4883,NAN,,NAN,,0,132,132,132,1,133,Sam,Acc,Participant_Images/6321d7404a95a42175d1243d/6321d7404a95a42175d1243d_Images/6321d7404a95a42175d1243d_Image_16.jpeg,did not like,2.071164779,,,,,,,,,,,,,,
,,,,,,,space,2.8392,NAN,,NAN,,0,133,133,133,1,134,Sam,Acc,Participant_Images/6321d7404a95a42175d1243d/6321d7404a95a42175d1243d_Images/6321d7404a95a42175d1243d_Image_6.jpeg,liked,5.336503566,,,,,,,,,,,,,,
,,,,,,,,,,,,,,,,,,,,,,,,c,0,space,4.7472,0,0,0,0,1,2.8322,,,,
,,,,,,,,,NAN,,NAN,,0,134,134,134,1,135,Sam,Acc,Participant_Images/6321d7404a95a42175d1243d/6321d7404a95a42175d1243d_Images/6321d7404a95a42175d1243d_Image_12.jpeg,did not like,2.642157193,,,,,,,,,,,,,,
,,,,,,,space,1.8528,NAN,,NAN,,0,135,135,135,1,136,Sam,Acc,Participant_Images/6321d7404a95a42175d1243d/6321d7404a95a42175d1243d_Images/6321d7404a95a42175d1243d_Image_24.jpeg,liked,4.456234322,,,,,,,,,,,,,,
,,,,,,,space,2.0471,NAN,,NAN,,0,136,136,136,1,137,Sam,Acc,Participant_Images/6321d7404a95a42175d1243d/6321d7404a95a42175d1243d_Images/6321d7404a95a42175d1243d_Image_29.jpeg,liked,4.438512181,,,,,,,,,,,,,,
,,,,,,,space,3.8495,NAN,,NAN,,0,137,137,137,1,138,Sam,Acc,Participant_Images/6321d7404a95a42175d1243d/6321d7404a95a42175d1243d_Images/6321d7404a95a42175d1243d_Image_10.jpeg,did not like,2.682944783,,,,,,,,,,,,,,
,,,,,,,space,1.9749,NAN,,NAN,,0,138,138,138,1,139,Sam,Acc,Participant_Images/6321d7404a95a42175d1243d/6321d7404a95a42175d1243d_Images/6321d7404a95a42175d1243d_Image_20.jpeg,did not like,4.51984296,,,,,,,,,,,,,,
,,,,,,,,,,,,,,,,,,,,,,,,c,0,space,0.7996,0,0,0,0,1,2.4253,,,,
,,,,,,,,,NAN,,NAN,,0,139,139,139,1,140,Sam,Acc,Participant_Images/6321d7404a95a42175d1243d/6321d7404a95a42175d1243d_Images/6321d7404a95a42175d1243d_Image_26.jpeg,liked,3.195382774,,,,,,,,,,,,,,
,,,,,,,space,4.3515,NAN,,NAN,,0,140,140,140,1,141,Sam,Acc,Participant_Images/6321d7404a95a42175d1243d/6321d7404a95a42175d1243d_Images/6321d7404a95a42175d1243d_Image_19.jpeg,did not like,1.779333479,,,,,,,,,,,,,,
,,,,,,,space,1.3029,NAN,,NAN,,0,141,141,141,1,142,Sam,Acc,Participant_Images/6321d7404a95a42175d1243d/6321d7404a95a42175d1243d_Images/6321d7404a95a42175d1243d_Image_30.jpeg,liked,4.312468682,,,,,,,,,,,,,,
,,,,,,,space,2.3578,NAN,,NAN,,0,142,142,142,1,143,Sam,Acc,Participant_Images/6321d7404a95a42175d1243d/6321d7404a95a42175d1243d_Images/6321d7404a95a42175d1243d_Image_14.jpeg,liked,4.940433059,,,,,,,,,,,,,,
,,,,,,,space,5.5351,NAN,,NAN,,0,143,143,143,1,144,Sam,Acc,Participant_Images/6321d7404a95a42175d1243d/6321d7404a95a42175d1243d_Images/6321d7404a95a42175d1243d_Image_15.jpeg,liked,2.7105123,,,,,,,,,,,,,,
,,,,,,,,,,,,,,,,,,,,,,,,s,1,space,2.6202,0,0,0,0,1,1.208,l,0.7484,,
,,,,,,,,,NAN,,NAN,,0,144,144,144,1,145,Sam,Acc,Participant_Images/6321d7404a95a42175d1243d/6321d7404a95a42175d1243d_Images/6321d7404a95a42175d1243d_Image_13.jpeg,liked,3.602308302,,,,,,,,,,,,,,
,,,,,,,space,2.3729,NAN,,NAN,,0,145,145,145,1,146,Sam,Acc,Participant_Images/6321d7404a95a42175d1243d/6321d7404a95a42175d1243d_Images/6321d7404a95a42175d1243d_Image_27.jpeg,liked,4.106391878,,,,,,,,,,,,,,
,,,,,,,space,1.8969,NAN,,NAN,,0,146,146,146,1,147,Sam,Acc,Participant_Images/6321d7404a95a42175d1243d/6321d7404a95a42175d1243d_Images/6321d7404a95a42175d1243d_Image_3.jpeg,did not like,3.799433026,,,,,,,,,,,,,,
,,,,,,,space,1.9415,NAN,,NAN,,0,147,147,147,1,148,Sam,Acc,Participant_Images/6321d7404a95a42175d1243d/6321d7404a95a42175d1243d_Images/6321d7404a95a42175d1243d_Image_9.jpeg,liked,5.246980764,,,,,,,,,,,,,,
,,,,,,,space,10.3537,NAN,,NAN,,0,148,148,148,1,149,Sam,Acc,Participant_Images/6321d7404a95a42175d1243d/6321d7404a95a42175d1243d_Images/6321d7404a95a42175d1243d_Image_21.jpeg,liked,3.30081769,,,,,,,,,,,,,,
,,,,,,,,,,,,,,,,,,,,,,,,,999,space,1.1252,0,0,0,0,1,,,,,
,,,,,,,,,3,,3,,0,149,149,149,1,150,Sam,Acc,Participant_Images/6321d7404a95a42175d1243d/6321d7404a95a42175d1243d_Images/6321d7404a95a42175d1243d_Image_11.jpeg,liked,1.661473164,,,,,,,,,,,,,,
,,,,,,,,,,,,,,,,,,,,,,,,,,,,,,,,,,,,space,1.9921
