PROLIFIC_ID,endwelcomescreen_keys.keys,endwelcomescreen_keys.rt,endinstructionscreen_keys.keys,endinstructionscreen_keys.rt,endpartnermatch_keys.keys,endpartnermatch_keys.rt,sharenextphoto_key.keys,sharenextphoto_key.rt,salience_rating,key_resp.keys,stress_level,stresslevel_keypress.keys,entiretaskloop.thisRepN,entiretaskloop.thisTrialN,entiretaskloop.thisN,entiretaskloop.thisIndex,entiretaskloop.ran,TrialNumber,Partner,Condition,Photos,Feedback,FeedbackWait,choice_keys.keys,playlottery,choice_keys.rt,lotteryguess_keys.keys,resumeafterlottery_keys.keys,resumeafterlottery_keys.rt,lotteryloop.thisRepN,lotteryloop.thisTrialN,lotteryloop.thisN,lotteryloop.thisIndex,lotteryloop.ran,lotteryguess_keys.rt,end_screen_keys.keys,end_screen_keys.rt
63ced670c8d001d1d5057140,space,8.6504,,,,,,,,,,,,,,,,,,,,,,,,,,,,,,,,,,,
,,,,,,,,,,,,,,,,,,,,,,,,,,,,,,,,,,,,,
,,,space,7.725,,,,,,,,,,,,,,,,,,,,,,,,,,,,,,,,,
,,,,,space,2.4442,space,1.4417,NAN,,NAN,,0,0,0,0,1,1,Riley,Acc,Participant_Images/63ced670c8d001d1d5057140/63ced670c8d001d1d5057140_Images/63ced670c8d001d1d5057140_Image_4.jpeg,liked,3.613205605,,,,,,,,,,,,,,
,,,,,,,space,0.7486,NAN,,NAN,,0,1,1,1,1,2,Riley,Acc,Participant_Images/63ced670c8d001d1d5057140/63ced670c8d001d1d5057140_Images/63ced670c8d001d1d5057140_Image_24.jpeg,liked,4.988446431,,,,,,,,,,,,,,
,,,,,,,space,1.1023,NAN,,NAN,,0,2,2,2,1,3,Riley,Acc,Participant_Images/63ced670c8d001d1d5057140/63ced670c8d001d1d5057140_Images/63ced670c8d001d1d5057140_Image_14.jpeg,liked,3.470791822,,,,,,,,,,,,,,
,,,,,,,space,1.1171,NAN,,NAN,,0,3,3,3,1,4,Riley,Acc,Participant_Images/63ced670c8d001d1d5057140/63ced670c8d001d1d5057140_Images/63ced670c8d001d1d5057140_Image_25.jpeg,liked,3.820572462,,,,,,,,,,,,,,
,,,,,,,,,,,,,,,,,,,,,,,,s,1,3.8397,,space,1.3225,0,0,0,0,1,,,
,,,,,,,,,NAN,,NAN,,0,4,4,4,1,5,Riley,Acc,Participant_Images/63ced670c8d001d1d5057140/63ced670c8d001d1d5057140_Images/63ced670c8d001d1d5057140_Image_15.jpeg,liked,2.455989137,,,,,,,,,,,,,,
,,,,,,,space,0.4499,NAN,,NAN,,0,5,5,5,1,6,Riley,Acc,Participant_Images/63ced670c8d001d1d5057140/63ced670c8d001d1d5057140_Images/63ced670c8d001d1d5057140_Image_17.jpeg,did not like,3.79605092,,,,,,,,,,,,,,
,,,,,,,space,1.575,NAN,,NAN,,0,6,6,6,1,7,Riley,Acc,Participant_Images/63ced670c8d001d1d5057140/63ced670c8d001d1d5057140_Images/63ced670c8d001d1d5057140_Image_26.jpeg,liked,3.562416326,,,,,,,,,,,,,,
,,,,,,,space,1.2387,NAN,,NAN,,0,7,7,7,1,8,Riley,Acc,Participant_Images/63ced670c8d001d1d5057140/63ced670c8d001d1d5057140_Images/63ced670c8d001d1d5057140_Image_22.jpeg,liked,2.843822497,,,,,,,,,,,,,,
,,,,,,,space,0.3843,NAN,,NAN,,0,8,8,8,1,9,Riley,Acc,Participant_Images/63ced670c8d001d1d5057140/63ced670c8d001d1d5057140_Images/63ced670c8d001d1d5057140_Image_30.jpeg,did not like,3.546495948,,,,,,,,,,,,,,
,,,,,,,,,,,,,,,,,,,,,,,,s,1,1.9419,h,space,1.2019,0,0,0,0,1,1.5118,,
,,,,,,,,,NAN,,NAN,,0,9,9,9,1,10,Riley,Acc,Participant_Images/63ced670c8d001d1d5057140/63ced670c8d001d1d5057140_Images/63ced670c8d001d1d5057140_Image_6.jpeg,liked,1.672012706,,,,,,,,,,,,,,
,,,,,,,space,1.2835,NAN,,NAN,,0,10,10,10,1,11,Riley,Acc,Participant_Images/63ced670c8d001d1d5057140/63ced670c8d001d1d5057140_Images/63ced670c8d001d1d5057140_Image_20.jpeg,liked,4.942172136,,,,,,,,,,,,,,
,,,,,,,space,1.6685,NAN,,NAN,,0,11,11,11,1,12,Riley,Acc,Participant_Images/63ced670c8d001d1d5057140/63ced670c8d001d1d5057140_Images/63ced670c8d001d1d5057140_Image_23.jpeg,liked,2.50187214,,,,,,,,,,,,,,
,,,,,,,space,105.1041,NAN,,NAN,,0,12,12,12,1,13,Riley,Acc,Participant_Images/63ced670c8d001d1d5057140/63ced670c8d001d1d5057140_Images/63ced670c8d001d1d5057140_Image_5.jpeg,did not like,2.071164779,,,,,,,,,,,,,,
,,,,,,,space,3.5582,NAN,,NAN,,0,13,13,13,1,14,Riley,Acc,Participant_Images/63ced670c8d001d1d5057140/63ced670c8d001d1d5057140_Images/63ced670c8d001d1d5057140_Image_21.jpeg,liked,5.336503566,,,,,,,,,,,,,,
,,,,,,,,,,,,,,,,,,,,,,,,s,1,2.3791,l,space,1.6219,0,0,0,0,1,1.6709,,
,,,,,,,,,NAN,,NAN,,0,14,14,14,1,15,Riley,Acc,Participant_Images/63ced670c8d001d1d5057140/63ced670c8d001d1d5057140_Images/63ced670c8d001d1d5057140_Image_16.jpeg,did not like,2.642157193,,,,,,,,,,,,,,
,,,,,,,space,0.3333,NAN,,NAN,,0,15,15,15,1,16,Riley,Acc,Participant_Images/63ced670c8d001d1d5057140/63ced670c8d001d1d5057140_Images/63ced670c8d001d1d5057140_Image_11.jpeg,liked,4.456234322,,,,,,,,,,,,,,
,,,,,,,space,0.7368,NAN,,NAN,,0,16,16,16,1,17,Riley,Acc,Participant_Images/63ced670c8d001d1d5057140/63ced670c8d001d1d5057140_Images/63ced670c8d001d1d5057140_Image_27.jpeg,liked,4.438512181,,,,,,,,,,,,,,
,,,,,,,space,0.5386,NAN,,NAN,,0,17,17,17,1,18,Riley,Acc,Participant_Images/63ced670c8d001d1d5057140/63ced670c8d001d1d5057140_Images/63ced670c8d001d1d5057140_Image_2.jpeg,liked,2.682944783,,,,,,,,,,,,,,
,,,,,,,space,0.7534,NAN,,NAN,,0,18,18,18,1,19,Riley,Acc,Participant_Images/63ced670c8d001d1d5057140/63ced670c8d001d1d5057140_Images/63ced670c8d001d1d5057140_Image_18.jpeg,did not like,4.51984296,,,,,,,,,,,,,,
,,,,,,,,,,,,,,,,,,,,,,,,s,1,1.6439,h,space,0.3707,0,0,0,0,1,1.4592,,
,,,,,,,,,NAN,,NAN,,0,19,19,19,1,20,Riley,Acc,Participant_Images/63ced670c8d001d1d5057140/63ced670c8d001d1d5057140_Images/63ced670c8d001d1d5057140_Image_19.jpeg,liked,3.195382774,,,,,,,,,,,,,,
,,,,,,,space,0.4737,NAN,,NAN,,0,20,20,20,1,21,Riley,Acc,Participant_Images/63ced670c8d001d1d5057140/63ced670c8d001d1d5057140_Images/63ced670c8d001d1d5057140_Image_10.jpeg,did not like,1.779333479,,,,,,,,,,,,,,
,,,,,,,space,0.7005,NAN,,NAN,,0,21,21,21,1,22,Riley,Acc,Participant_Images/63ced670c8d001d1d5057140/63ced670c8d001d1d5057140_Images/63ced670c8d001d1d5057140_Image_8.jpeg,liked,4.312468682,,,,,,,,,,,,,,
,,,,,,,space,0.6229,NAN,,NAN,,0,22,22,22,1,23,Riley,Acc,Participant_Images/63ced670c8d001d1d5057140/63ced670c8d001d1d5057140_Images/63ced670c8d001d1d5057140_Image_9.jpeg,did not like,4.940433059,,,,,,,,,,,,,,
,,,,,,,space,0.4998,NAN,,NAN,,0,23,23,23,1,24,Riley,Acc,Participant_Images/63ced670c8d001d1d5057140/63ced670c8d001d1d5057140_Images/63ced670c8d001d1d5057140_Image_12.jpeg,liked,2.7105123,,,,,,,,,,,,,,
,,,,,,,,,,,,,,,,,,,,,,,,s,1,1.9408,h,space,0.4107,0,0,0,0,1,0.3607,,
,,,,,,,,,NAN,,NAN,,0,24,24,24,1,25,Riley,Acc,Participant_Images/63ced670c8d001d1d5057140/63ced670c8d001d1d5057140_Images/63ced670c8d001d1d5057140_Image_13.jpeg,liked,3.602308302,,,,,,,,,,,,,,
,,,,,,,space,0.7325,NAN,,NAN,,0,25,25,25,1,26,Riley,Acc,Participant_Images/63ced670c8d001d1d5057140/63ced670c8d001d1d5057140_Images/63ced670c8d001d1d5057140_Image_7.jpeg,liked,4.106391878,,,,,,,,,,,,,,
,,,,,,,space,0.54,NAN,,NAN,,0,26,26,26,1,27,Riley,Acc,Participant_Images/63ced670c8d001d1d5057140/63ced670c8d001d1d5057140_Images/63ced670c8d001d1d5057140_Image_3.jpeg,did not like,3.799433026,,,,,,,,,,,,,,
,,,,,,,space,0.5884,NAN,,NAN,,0,27,27,27,1,28,Riley,Acc,Participant_Images/63ced670c8d001d1d5057140/63ced670c8d001d1d5057140_Images/63ced670c8d001d1d5057140_Image_28.jpeg,liked,5.246980764,,,,,,,,,,,,,,
,,,,,,,space,0.8492,NAN,,NAN,,0,28,28,28,1,29,Riley,Acc,Participant_Images/63ced670c8d001d1d5057140/63ced670c8d001d1d5057140_Images/63ced670c8d001d1d5057140_Image_29.jpeg,liked,3.30081769,,,,,,,,,,,,,,
,,,,,,,,,,,,,,,,,,,,,,,,s,1,1.5519,h,space,0.5904,0,0,0,0,1,0.2853,,
,,,,,,,,,4,,7,,0,29,29,29,1,30,Riley,Acc,Participant_Images/63ced670c8d001d1d5057140/63ced670c8d001d1d5057140_Images/63ced670c8d001d1d5057140_Image_1.jpeg,did not like,1.661473164,,,,,,,,,,,,,,
,,,,,space,1.2689,space,0.2891,NAN,,NAN,,0,30,30,30,1,31,Charlie,Rej,Participant_Images/63ced670c8d001d1d5057140/63ced670c8d001d1d5057140_Images/63ced670c8d001d1d5057140_Image_9.jpeg,liked,3.613205605,,,,,,,,,,,,,,
,,,,,,,space,0.4968,NAN,,NAN,,0,31,31,31,1,32,Charlie,Rej,Participant_Images/63ced670c8d001d1d5057140/63ced670c8d001d1d5057140_Images/63ced670c8d001d1d5057140_Image_29.jpeg,did not like,4.988446431,,,,,,,,,,,,,,
,,,,,,,space,0.645,NAN,,NAN,,0,32,32,32,1,33,Charlie,Rej,Participant_Images/63ced670c8d001d1d5057140/63ced670c8d001d1d5057140_Images/63ced670c8d001d1d5057140_Image_24.jpeg,did not like,3.470791822,,,,,,,,,,,,,,
,,,,,,,space,0.2012,NAN,,NAN,,0,33,33,33,1,34,Charlie,Rej,Participant_Images/63ced670c8d001d1d5057140/63ced670c8d001d1d5057140_Images/63ced670c8d001d1d5057140_Image_1.jpeg,did not like,3.820572462,,,,,,,,,,,,,,
,,,,,,,,,,,,,,,,,,,,,,,,s,1,1.4058,h,space,0.6748,0,0,0,0,1,0.2282,,
,,,,,,,,,NAN,,NAN,,0,34,34,34,1,35,Charlie,Rej,Participant_Images/63ced670c8d001d1d5057140/63ced670c8d001d1d5057140_Images/63ced670c8d001d1d5057140_Image_11.jpeg,did not like,2.455989137,,,,,,,,,,,,,,
,,,,,,,space,0.3346,NAN,,NAN,,0,35,35,35,1,36,Charlie,Rej,Participant_Images/63ced670c8d001d1d5057140/63ced670c8d001d1d5057140_Images/63ced670c8d001d1d5057140_Image_25.jpeg,liked,3.79605092,,,,,,,,,,,,,,
,,,,,,,space,3.5059,NAN,,NAN,,0,36,36,36,1,37,Charlie,Rej,Participant_Images/63ced670c8d001d1d5057140/63ced670c8d001d1d5057140_Images/63ced670c8d001d1d5057140_Image_7.jpeg,liked,3.562416326,,,,,,,,,,,,,,
,,,,,,,space,0.9668,NAN,,NAN,,0,37,37,37,1,38,Charlie,Rej,Participant_Images/63ced670c8d001d1d5057140/63ced670c8d001d1d5057140_Images/63ced670c8d001d1d5057140_Image_22.jpeg,did not like,2.843822497,,,,,,,,,,,,,,
,,,,,,,space,0.5677,NAN,,NAN,,0,38,38,38,1,39,Charlie,Rej,Participant_Images/63ced670c8d001d1d5057140/63ced670c8d001d1d5057140_Images/63ced670c8d001d1d5057140_Image_4.jpeg,did not like,3.546495948,,,,,,,,,,,,,,
,,,,,,,,,,,,,,,,,,,,,,,,s,1,1.5764,h,space,1.0729,0,0,0,0,1,0.5526,,
,,,,,,,,,NAN,,NAN,,0,39,39,39,1,40,Charlie,Rej,Participant_Images/63ced670c8d001d1d5057140/63ced670c8d001d1d5057140_Images/63ced670c8d001d1d5057140_Image_8.jpeg,did not like,1.672012706,,,,,,,,,,,,,,
,,,,,,,space,0.4394,NAN,,NAN,,0,40,40,40,1,41,Charlie,Rej,Participant_Images/63ced670c8d001d1d5057140/63ced670c8d001d1d5057140_Images/63ced670c8d001d1d5057140_Image_19.jpeg,did not like,4.942172136,,,,,,,,,,,,,,
,,,,,,,space,1.0661,NAN,,NAN,,0,41,41,41,1,42,Charlie,Rej,Participant_Images/63ced670c8d001d1d5057140/63ced670c8d001d1d5057140_Images/63ced670c8d001d1d5057140_Image_28.jpeg,liked,2.50187214,,,,,,,,,,,,,,
,,,,,,,space,0.5334,NAN,,NAN,,0,42,42,42,1,43,Charlie,Rej,Participant_Images/63ced670c8d001d1d5057140/63ced670c8d001d1d5057140_Images/63ced670c8d001d1d5057140_Image_6.jpeg,did not like,2.071164779,,,,,,,,,,,,,,
,,,,,,,space,0.6871,NAN,,NAN,,0,43,43,43,1,44,Charlie,Rej,Participant_Images/63ced670c8d001d1d5057140/63ced670c8d001d1d5057140_Images/63ced670c8d001d1d5057140_Image_18.jpeg,did not like,5.336503566,,,,,,,,,,,,,,
,,,,,,,,,,,,,,,,,,,,,,,,s,1,1.7678,h,space,1.117,0,0,0,0,1,1.2097,,
,,,,,,,,,NAN,,NAN,,0,44,44,44,1,45,Charlie,Rej,Participant_Images/63ced670c8d001d1d5057140/63ced670c8d001d1d5057140_Images/63ced670c8d001d1d5057140_Image_5.jpeg,did not like,2.642157193,,,,,,,,,,,,,,
,,,,,,,space,0.7839,NAN,,NAN,,0,45,45,45,1,46,Charlie,Rej,Participant_Images/63ced670c8d001d1d5057140/63ced670c8d001d1d5057140_Images/63ced670c8d001d1d5057140_Image_10.jpeg,did not like,4.456234322,,,,,,,,,,,,,,
,,,,,,,space,1.5418,NAN,,NAN,,0,46,46,46,1,47,Charlie,Rej,Participant_Images/63ced670c8d001d1d5057140/63ced670c8d001d1d5057140_Images/63ced670c8d001d1d5057140_Image_17.jpeg,liked,4.438512181,,,,,,,,,,,,,,
,,,,,,,space,0.7046,NAN,,NAN,,0,47,47,47,1,48,Charlie,Rej,Participant_Images/63ced670c8d001d1d5057140/63ced670c8d001d1d5057140_Images/63ced670c8d001d1d5057140_Image_26.jpeg,did not like,2.682944783,,,,,,,,,,,,,,
,,,,,,,space,0.8575,NAN,,NAN,,0,48,48,48,1,49,Charlie,Rej,Participant_Images/63ced670c8d001d1d5057140/63ced670c8d001d1d5057140_Images/63ced670c8d001d1d5057140_Image_20.jpeg,liked,4.51984296,,,,,,,,,,,,,,
,,,,,,,,,,,,,,,,,,,,,,,,s,1,1.4321,h,space,0.8076,0,0,0,0,1,1.2855,,
,,,,,,,,,NAN,,NAN,,0,49,49,49,1,50,Charlie,Rej,Participant_Images/63ced670c8d001d1d5057140/63ced670c8d001d1d5057140_Images/63ced670c8d001d1d5057140_Image_3.jpeg,liked,3.195382774,,,,,,,,,,,,,,
,,,,,,,space,1.3046,NAN,,NAN,,0,50,50,50,1,51,Charlie,Rej,Participant_Images/63ced670c8d001d1d5057140/63ced670c8d001d1d5057140_Images/63ced670c8d001d1d5057140_Image_12.jpeg,liked,1.779333479,,,,,,,,,,,,,,
,,,,,,,space,0.7173,NAN,,NAN,,0,51,51,51,1,52,Charlie,Rej,Participant_Images/63ced670c8d001d1d5057140/63ced670c8d001d1d5057140_Images/63ced670c8d001d1d5057140_Image_14.jpeg,did not like,4.312468682,,,,,,,,,,,,,,
,,,,,,,space,0.9672,NAN,,NAN,,0,52,52,52,1,53,Charlie,Rej,Participant_Images/63ced670c8d001d1d5057140/63ced670c8d001d1d5057140_Images/63ced670c8d001d1d5057140_Image_2.jpeg,did not like,4.940433059,,,,,,,,,,,,,,
,,,,,,,space,0.5506,NAN,,NAN,,0,53,53,53,1,54,Charlie,Rej,Participant_Images/63ced670c8d001d1d5057140/63ced670c8d001d1d5057140_Images/63ced670c8d001d1d5057140_Image_15.jpeg,did not like,2.7105123,,,,,,,,,,,,,,
,,,,,,,,,,,,,,,,,,,,,,,,s,1,1.5107,h,space,7.3721,0,0,0,0,1,1.2449,,
,,,,,,,,,NAN,,NAN,,0,54,54,54,1,55,Charlie,Rej,Participant_Images/63ced670c8d001d1d5057140/63ced670c8d001d1d5057140_Images/63ced670c8d001d1d5057140_Image_21.jpeg,did not like,3.602308302,,,,,,,,,,,,,,
,,,,,,,space,3.242,NAN,,NAN,,0,55,55,55,1,56,Charlie,Rej,Participant_Images/63ced670c8d001d1d5057140/63ced670c8d001d1d5057140_Images/63ced670c8d001d1d5057140_Image_30.jpeg,did not like,4.106391878,,,,,,,,,,,,,,
,,,,,,,space,1.4078,NAN,,NAN,,0,56,56,56,1,57,Charlie,Rej,Participant_Images/63ced670c8d001d1d5057140/63ced670c8d001d1d5057140_Images/63ced670c8d001d1d5057140_Image_16.jpeg,did not like,3.799433026,,,,,,,,,,,,,,
,,,,,,,space,0.9859,NAN,,NAN,,0,57,57,57,1,58,Charlie,Rej,Participant_Images/63ced670c8d001d1d5057140/63ced670c8d001d1d5057140_Images/63ced670c8d001d1d5057140_Image_27.jpeg,did not like,5.246980764,,,,,,,,,,,,,,
,,,,,,,space,0.5213,NAN,,NAN,,0,58,58,58,1,59,Charlie,Rej,Participant_Images/63ced670c8d001d1d5057140/63ced670c8d001d1d5057140_Images/63ced670c8d001d1d5057140_Image_23.jpeg,liked,3.30081769,,,,,,,,,,,,,,
,,,,,,,,,,,,,,,,,,,,,,,,s,1,1.9905,h,space,1.1858,0,0,0,0,1,0.7283,,
,,,,,,,,,3,,7,,0,59,59,59,1,60,Charlie,Rej,Participant_Images/63ced670c8d001d1d5057140/63ced670c8d001d1d5057140_Images/63ced670c8d001d1d5057140_Image_13.jpeg,did not like,1.661473164,,,,,,,,,,,,,,
,,,,,space,1.0446,space,0.967,NAN,,NAN,,0,60,60,60,1,61,Sam,Neutral,Participant_Images/63ced670c8d001d1d5057140/63ced670c8d001d1d5057140_Images/63ced670c8d001d1d5057140_Image_19.jpeg,liked,3.613205605,,,,,,,,,,,,,,
,,,,,,,space,1.3386,NAN,,NAN,,0,61,61,61,1,62,Sam,Neutral,Participant_Images/63ced670c8d001d1d5057140/63ced670c8d001d1d5057140_Images/63ced670c8d001d1d5057140_Image_28.jpeg,liked,4.988446431,,,,,,,,,,,,,,
,,,,,,,space,1.8893,NAN,,NAN,,0,62,62,62,1,63,Sam,Neutral,Participant_Images/63ced670c8d001d1d5057140/63ced670c8d001d1d5057140_Images/63ced670c8d001d1d5057140_Image_11.jpeg,liked,3.470791822,,,,,,,,,,,,,,
,,,,,,,space,2.6699,NAN,,NAN,,0,63,63,63,1,64,Sam,Neutral,Participant_Images/63ced670c8d001d1d5057140/63ced670c8d001d1d5057140_Images/63ced670c8d001d1d5057140_Image_6.jpeg,did not like,3.820572462,,,,,,,,,,,,,,
,,,,,,,,,,,,,,,,,,,,,,,,s,1,1.3125,h,space,8.2667,0,0,0,0,1,0.7294,,
,,,,,,,,,NAN,,NAN,,0,64,64,64,1,65,Sam,Neutral,Participant_Images/63ced670c8d001d1d5057140/63ced670c8d001d1d5057140_Images/63ced670c8d001d1d5057140_Image_25.jpeg,did not like,2.455989137,,,,,,,,,,,,,,
,,,,,,,space,0.6845,NAN,,NAN,,0,65,65,65,1,66,Sam,Neutral,Participant_Images/63ced670c8d001d1d5057140/63ced670c8d001d1d5057140_Images/63ced670c8d001d1d5057140_Image_21.jpeg,did not like,3.79605092,,,,,,,,,,,,,,
,,,,,,,space,0.5727,NAN,,NAN,,0,66,66,66,1,67,Sam,Neutral,Participant_Images/63ced670c8d001d1d5057140/63ced670c8d001d1d5057140_Images/63ced670c8d001d1d5057140_Image_9.jpeg,liked,3.562416326,,,,,,,,,,,,,,
,,,,,,,space,2.7733,NAN,,NAN,,0,67,67,67,1,68,Sam,Neutral,Participant_Images/63ced670c8d001d1d5057140/63ced670c8d001d1d5057140_Images/63ced670c8d001d1d5057140_Image_3.jpeg,liked,2.843822497,,,,,,,,,,,,,,
,,,,,,,space,1.1863,NAN,,NAN,,0,68,68,68,1,69,Sam,Neutral,Participant_Images/63ced670c8d001d1d5057140/63ced670c8d001d1d5057140_Images/63ced670c8d001d1d5057140_Image_18.jpeg,did not like,3.546495948,,,,,,,,,,,,,,
,,,,,,,,,,,,,,,,,,,,,,,,s,1,1.4803,h,space,2.0904,0,0,0,0,1,1.5055,,
,,,,,,,,,NAN,,NAN,,0,69,69,69,1,70,Sam,Neutral,Participant_Images/63ced670c8d001d1d5057140/63ced670c8d001d1d5057140_Images/63ced670c8d001d1d5057140_Image_7.jpeg,did not like,1.672012706,,,,,,,,,,,,,,
,,,,,,,space,0.5674,NAN,,NAN,,0,70,70,70,1,71,Sam,Neutral,Participant_Images/63ced670c8d001d1d5057140/63ced670c8d001d1d5057140_Images/63ced670c8d001d1d5057140_Image_15.jpeg,liked,4.942172136,,,,,,,,,,,,,,
,,,,,,,space,0.6501,NAN,,NAN,,0,71,71,71,1,72,Sam,Neutral,Participant_Images/63ced670c8d001d1d5057140/63ced670c8d001d1d5057140_Images/63ced670c8d001d1d5057140_Image_1.jpeg,did not like,2.50187214,,,,,,,,,,,,,,
,,,,,,,space,0.4504,NAN,,NAN,,0,72,72,72,1,73,Sam,Neutral,Participant_Images/63ced670c8d001d1d5057140/63ced670c8d001d1d5057140_Images/63ced670c8d001d1d5057140_Image_14.jpeg,did not like,2.071164779,,,,,,,,,,,,,,
,,,,,,,space,0.6579,NAN,,NAN,,0,73,73,73,1,74,Sam,Neutral,Participant_Images/63ced670c8d001d1d5057140/63ced670c8d001d1d5057140_Images/63ced670c8d001d1d5057140_Image_30.jpeg,did not like,5.336503566,,,,,,,,,,,,,,
,,,,,,,,,,,,,,,,,,,,,,,,s,1,1.3791,h,space,1.0011,0,0,0,0,1,0.4091,,
,,,,,,,,,NAN,,NAN,,0,74,74,74,1,75,Sam,Neutral,Participant_Images/63ced670c8d001d1d5057140/63ced670c8d001d1d5057140_Images/63ced670c8d001d1d5057140_Image_23.jpeg,liked,2.642157193,,,,,,,,,,,,,,
,,,,,,,space,0.6692,NAN,,NAN,,0,75,75,75,1,76,Sam,Neutral,Participant_Images/63ced670c8d001d1d5057140/63ced670c8d001d1d5057140_Images/63ced670c8d001d1d5057140_Image_8.jpeg,did not like,4.456234322,,,,,,,,,,,,,,
,,,,,,,space,0.505,NAN,,NAN,,0,76,76,76,1,77,Sam,Neutral,Participant_Images/63ced670c8d001d1d5057140/63ced670c8d001d1d5057140_Images/63ced670c8d001d1d5057140_Image_27.jpeg,did not like,4.438512181,,,,,,,,,,,,,,
,,,,,,,space,1.6034,NAN,,NAN,,0,77,77,77,1,78,Sam,Neutral,Participant_Images/63ced670c8d001d1d5057140/63ced670c8d001d1d5057140_Images/63ced670c8d001d1d5057140_Image_16.jpeg,liked,2.682944783,,,,,,,,,,,,,,
,,,,,,,space,0.6576,NAN,,NAN,,0,78,78,78,1,79,Sam,Neutral,Participant_Images/63ced670c8d001d1d5057140/63ced670c8d001d1d5057140_Images/63ced670c8d001d1d5057140_Image_4.jpeg,liked,4.51984296,,,,,,,,,,,,,,
,,,,,,,,,,,,,,,,,,,,,,,,s,1,1.3579,h,space,1.187,0,0,0,0,1,2.071,,
,,,,,,,,,NAN,,NAN,,0,79,79,79,1,80,Sam,Neutral,Participant_Images/63ced670c8d001d1d5057140/63ced670c8d001d1d5057140_Images/63ced670c8d001d1d5057140_Image_24.jpeg,did not like,3.195382774,,,,,,,,,,,,,,
,,,,,,,space,0.904,NAN,,NAN,,0,80,80,80,1,81,Sam,Neutral,Participant_Images/63ced670c8d001d1d5057140/63ced670c8d001d1d5057140_Images/63ced670c8d001d1d5057140_Image_13.jpeg,liked,1.779333479,,,,,,,,,,,,,,
,,,,,,,space,0.9918,NAN,,NAN,,0,81,81,81,1,82,Sam,Neutral,Participant_Images/63ced670c8d001d1d5057140/63ced670c8d001d1d5057140_Images/63ced670c8d001d1d5057140_Image_5.jpeg,did not like,4.312468682,,,,,,,,,,,,,,
,,,,,,,space,1.4247,NAN,,NAN,,0,82,82,82,1,83,Sam,Neutral,Participant_Images/63ced670c8d001d1d5057140/63ced670c8d001d1d5057140_Images/63ced670c8d001d1d5057140_Image_29.jpeg,liked,4.940433059,,,,,,,,,,,,,,
,,,,,,,space,0.7256,NAN,,NAN,,0,83,83,83,1,84,Sam,Neutral,Participant_Images/63ced670c8d001d1d5057140/63ced670c8d001d1d5057140_Images/63ced670c8d001d1d5057140_Image_22.jpeg,liked,2.7105123,,,,,,,,,,,,,,
,,,,,,,,,,,,,,,,,,,,,,,,s,1,1.9382,h,space,1.4685,0,0,0,0,1,2.3026,,
,,,,,,,,,NAN,,NAN,,0,84,84,84,1,85,Sam,Neutral,Participant_Images/63ced670c8d001d1d5057140/63ced670c8d001d1d5057140_Images/63ced670c8d001d1d5057140_Image_26.jpeg,liked,3.602308302,,,,,,,,,,,,,,
,,,,,,,space,5.4059,NAN,,NAN,,0,85,85,85,1,86,Sam,Neutral,Participant_Images/63ced670c8d001d1d5057140/63ced670c8d001d1d5057140_Images/63ced670c8d001d1d5057140_Image_17.jpeg,did not like,4.106391878,,,,,,,,,,,,,,
,,,,,,,space,5.0111,NAN,,NAN,,0,86,86,86,1,87,Sam,Neutral,Participant_Images/63ced670c8d001d1d5057140/63ced670c8d001d1d5057140_Images/63ced670c8d001d1d5057140_Image_20.jpeg,liked,3.799433026,,,,,,,,,,,,,,
,,,,,,,space,3.2372,NAN,,NAN,,0,87,87,87,1,88,Sam,Neutral,Participant_Images/63ced670c8d001d1d5057140/63ced670c8d001d1d5057140_Images/63ced670c8d001d1d5057140_Image_12.jpeg,did not like,5.246980764,,,,,,,,,,,,,,
,,,,,,,space,3.7167,NAN,,NAN,,0,88,88,88,1,89,Sam,Neutral,Participant_Images/63ced670c8d001d1d5057140/63ced670c8d001d1d5057140_Images/63ced670c8d001d1d5057140_Image_2.jpeg,liked,3.30081769,,,,,,,,,,,,,,
,,,,,,,,,,,,,,,,,,,,,,,,,999,,,space,4.9949,0,0,0,0,1,,,
,,,,,,,,,4,,6,,0,89,89,89,1,90,Sam,Neutral,Participant_Images/63ced670c8d001d1d5057140/63ced670c8d001d1d5057140_Images/63ced670c8d001d1d5057140_Image_10.jpeg,did not like,1.661473164,,,,,,,,,,,,,,
,,,,,space,2.4461,space,1.5294,NAN,,NAN,,0,90,90,90,1,91,Alex,Rej,Participant_Images/63ced670c8d001d1d5057140/63ced670c8d001d1d5057140_Images/63ced670c8d001d1d5057140_Image_3.jpeg,did not like,3.613205605,,,,,,,,,,,,,,
,,,,,,,space,7.6913,NAN,,NAN,,0,91,91,91,1,92,Alex,Rej,Participant_Images/63ced670c8d001d1d5057140/63ced670c8d001d1d5057140_Images/63ced670c8d001d1d5057140_Image_10.jpeg,did not like,4.988446431,,,,,,,,,,,,,,
,,,,,,,space,4.9189,NAN,,NAN,,0,92,92,92,1,93,Alex,Rej,Participant_Images/63ced670c8d001d1d5057140/63ced670c8d001d1d5057140_Images/63ced670c8d001d1d5057140_Image_8.jpeg,did not like,3.470791822,,,,,,,,,,,,,,
,,,,,,,space,5.0083,NAN,,NAN,,0,93,93,93,1,94,Alex,Rej,Participant_Images/63ced670c8d001d1d5057140/63ced670c8d001d1d5057140_Images/63ced670c8d001d1d5057140_Image_2.jpeg,did not like,3.820572462,,,,,,,,,,,,,,
,,,,,,,,,,,,,,,,,,,,,,,,s,1,1.9271,h,space,5.6423,0,0,0,0,1,0.683,,
,,,,,,,,,NAN,,NAN,,0,94,94,94,1,95,Alex,Rej,Participant_Images/63ced670c8d001d1d5057140/63ced670c8d001d1d5057140_Images/63ced670c8d001d1d5057140_Image_20.jpeg,did not like,2.455989137,,,,,,,,,,,,,,
,,,,,,,space,4.1025,NAN,,NAN,,0,95,95,95,1,96,Alex,Rej,Participant_Images/63ced670c8d001d1d5057140/63ced670c8d001d1d5057140_Images/63ced670c8d001d1d5057140_Image_14.jpeg,did not like,3.79605092,,,,,,,,,,,,,,
,,,,,,,space,8.0088,NAN,,NAN,,0,96,96,96,1,97,Alex,Rej,Participant_Images/63ced670c8d001d1d5057140/63ced670c8d001d1d5057140_Images/63ced670c8d001d1d5057140_Image_30.jpeg,did not like,3.562416326,,,,,,,,,,,,,,
,,,,,,,space,0.8547,NAN,,NAN,,0,97,97,97,1,98,Alex,Rej,Participant_Images/63ced670c8d001d1d5057140/63ced670c8d001d1d5057140_Images/63ced670c8d001d1d5057140_Image_25.jpeg,did not like,2.843822497,,,,,,,,,,,,,,
,,,,,,,space,0.8818,NAN,,NAN,,0,98,98,98,1,99,Alex,Rej,Participant_Images/63ced670c8d001d1d5057140/63ced670c8d001d1d5057140_Images/63ced670c8d001d1d5057140_Image_15.jpeg,did not like,3.546495948,,,,,,,,,,,,,,
,,,,,,,,,,,,,,,,,,,,,,,,,999,,,space,2.2229,0,0,0,0,1,,,
,,,,,,,,,NAN,,NAN,,0,99,99,99,1,100,Alex,Rej,Participant_Images/63ced670c8d001d1d5057140/63ced670c8d001d1d5057140_Images/63ced670c8d001d1d5057140_Image_5.jpeg,did not like,1.672012706,,,,,,,,,,,,,,
,,,,,,,space,0.4709,NAN,,NAN,,0,100,100,100,1,101,Alex,Rej,Participant_Images/63ced670c8d001d1d5057140/63ced670c8d001d1d5057140_Images/63ced670c8d001d1d5057140_Image_13.jpeg,did not like,4.942172136,,,,,,,,,,,,,,
,,,,,,,space,2.0694,NAN,,NAN,,0,101,101,101,1,102,Alex,Rej,Participant_Images/63ced670c8d001d1d5057140/63ced670c8d001d1d5057140_Images/63ced670c8d001d1d5057140_Image_11.jpeg,did not like,2.50187214,,,,,,,,,,,,,,
,,,,,,,space,0.2403,NAN,,NAN,,0,102,102,102,1,103,Alex,Rej,Participant_Images/63ced670c8d001d1d5057140/63ced670c8d001d1d5057140_Images/63ced670c8d001d1d5057140_Image_17.jpeg,liked,2.071164779,,,,,,,,,,,,,,
,,,,,,,space,2.8806,NAN,,NAN,,0,103,103,103,1,104,Alex,Rej,Participant_Images/63ced670c8d001d1d5057140/63ced670c8d001d1d5057140_Images/63ced670c8d001d1d5057140_Image_24.jpeg,did not like,5.336503566,,,,,,,,,,,,,,
,,,,,,,,,,,,,,,,,,,,,,,,,999,,,space,13.3369,0,0,0,0,1,,,
,,,,,,,,,NAN,,NAN,,0,104,104,104,1,105,Alex,Rej,Participant_Images/63ced670c8d001d1d5057140/63ced670c8d001d1d5057140_Images/63ced670c8d001d1d5057140_Image_12.jpeg,liked,2.642157193,,,,,,,,,,,,,,
,,,,,,,space,0.3958,NAN,,NAN,,0,105,105,105,1,106,Alex,Rej,Participant_Images/63ced670c8d001d1d5057140/63ced670c8d001d1d5057140_Images/63ced670c8d001d1d5057140_Image_6.jpeg,did not like,4.456234322,,,,,,,,,,,,,,
,,,,,,,space,0.3939,NAN,,NAN,,0,106,106,106,1,107,Alex,Rej,Participant_Images/63ced670c8d001d1d5057140/63ced670c8d001d1d5057140_Images/63ced670c8d001d1d5057140_Image_18.jpeg,did not like,4.438512181,,,,,,,,,,,,,,
,,,,,,,space,3.6212,NAN,,NAN,,0,107,107,107,1,108,Alex,Rej,Participant_Images/63ced670c8d001d1d5057140/63ced670c8d001d1d5057140_Images/63ced670c8d001d1d5057140_Image_9.jpeg,did not like,2.682944783,,,,,,,,,,,,,,
,,,,,,,space,2.0574,NAN,,NAN,,0,108,108,108,1,109,Alex,Rej,Participant_Images/63ced670c8d001d1d5057140/63ced670c8d001d1d5057140_Images/63ced670c8d001d1d5057140_Image_26.jpeg,did not like,4.51984296,,,,,,,,,,,,,,
,,,,,,,,,,,,,,,,,,,,,,,,s,1,1.6382,h,space,2.2258,0,0,0,0,1,0.9527,,
,,,,,,,,,NAN,,NAN,,0,109,109,109,1,110,Alex,Rej,Participant_Images/63ced670c8d001d1d5057140/63ced670c8d001d1d5057140_Images/63ced670c8d001d1d5057140_Image_23.jpeg,liked,3.195382774,,,,,,,,,,,,,,
,,,,,,,space,2.2371,NAN,,NAN,,0,110,110,110,1,111,Alex,Rej,Participant_Images/63ced670c8d001d1d5057140/63ced670c8d001d1d5057140_Images/63ced670c8d001d1d5057140_Image_1.jpeg,liked,1.779333479,,,,,,,,,,,,,,
,,,,,,,space,0.3387,NAN,,NAN,,0,111,111,111,1,112,Alex,Rej,Participant_Images/63ced670c8d001d1d5057140/63ced670c8d001d1d5057140_Images/63ced670c8d001d1d5057140_Image_19.jpeg,did not like,4.312468682,,,,,,,,,,,,,,
,,,,,,,space,1.3226,NAN,,NAN,,0,112,112,112,1,113,Alex,Rej,Participant_Images/63ced670c8d001d1d5057140/63ced670c8d001d1d5057140_Images/63ced670c8d001d1d5057140_Image_22.jpeg,did not like,4.940433059,,,,,,,,,,,,,,
,,,,,,,space,2.2644,NAN,,NAN,,0,113,113,113,1,114,Alex,Rej,Participant_Images/63ced670c8d001d1d5057140/63ced670c8d001d1d5057140_Images/63ced670c8d001d1d5057140_Image_16.jpeg,liked,2.7105123,,,,,,,,,,,,,,
,,,,,,,,,,,,,,,,,,,,,,,,s,1,2.8251,h,space,1.7667,0,0,0,0,1,1.06,,
,,,,,,,,,NAN,,NAN,,0,114,114,114,1,115,Alex,Rej,Participant_Images/63ced670c8d001d1d5057140/63ced670c8d001d1d5057140_Images/63ced670c8d001d1d5057140_Image_27.jpeg,liked,3.602308302,,,,,,,,,,,,,,
,,,,,,,space,1.0334,NAN,,NAN,,0,115,115,115,1,116,Alex,Rej,Participant_Images/63ced670c8d001d1d5057140/63ced670c8d001d1d5057140_Images/63ced670c8d001d1d5057140_Image_4.jpeg,did not like,4.106391878,,,,,,,,,,,,,,
,,,,,,,space,3.6859,NAN,,NAN,,0,116,116,116,1,117,Alex,Rej,Participant_Images/63ced670c8d001d1d5057140/63ced670c8d001d1d5057140_Images/63ced670c8d001d1d5057140_Image_7.jpeg,liked,3.799433026,,,,,,,,,,,,,,
,,,,,,,space,2.5534,NAN,,NAN,,0,117,117,117,1,118,Alex,Rej,Participant_Images/63ced670c8d001d1d5057140/63ced670c8d001d1d5057140_Images/63ced670c8d001d1d5057140_Image_29.jpeg,liked,5.246980764,,,,,,,,,,,,,,
,,,,,,,space,0.8207,NAN,,NAN,,0,118,118,118,1,119,Alex,Rej,Participant_Images/63ced670c8d001d1d5057140/63ced670c8d001d1d5057140_Images/63ced670c8d001d1d5057140_Image_28.jpeg,did not like,3.30081769,,,,,,,,,,,,,,
,,,,,,,,,,,,,,,,,,,,,,,,s,1,2.6298,h,space,4.8351,0,0,0,0,1,1.1796,,
,,,,,,,,,4,,6,,0,119,119,119,1,120,Alex,Rej,Participant_Images/63ced670c8d001d1d5057140/63ced670c8d001d1d5057140_Images/63ced670c8d001d1d5057140_Image_21.jpeg,liked,1.661473164,,,,,,,,,,,,,,
,,,,,space,0.8144,space,5.2775,NAN,,NAN,,0,120,120,120,1,121,Taylor,Acc,Participant_Images/63ced670c8d001d1d5057140/63ced670c8d001d1d5057140_Images/63ced670c8d001d1d5057140_Image_7.jpeg,liked,3.613205605,,,,,,,,,,,,,,
,,,,,,,space,2.7414,NAN,,NAN,,0,121,121,121,1,122,Taylor,Acc,Participant_Images/63ced670c8d001d1d5057140/63ced670c8d001d1d5057140_Images/63ced670c8d001d1d5057140_Image_24.jpeg,did not like,4.988446431,,,,,,,,,,,,,,
,,,,,,,space,7.8092,NAN,,NAN,,0,122,122,122,1,123,Taylor,Acc,Participant_Images/63ced670c8d001d1d5057140/63ced670c8d001d1d5057140_Images/63ced670c8d001d1d5057140_Image_13.jpeg,liked,3.470791822,,,,,,,,,,,,,,
,,,,,,,space,2.501,NAN,,NAN,,0,123,123,123,1,124,Taylor,Acc,Participant_Images/63ced670c8d001d1d5057140/63ced670c8d001d1d5057140_Images/63ced670c8d001d1d5057140_Image_26.jpeg,liked,3.820572462,,,,,,,,,,,,,,
,,,,,,,,,,,,,,,,,,,,,,,,,999,,,space,1.7022,0,0,0,0,1,,,
,,,,,,,,,NAN,,NAN,,0,124,124,124,1,125,Taylor,Acc,Participant_Images/63ced670c8d001d1d5057140/63ced670c8d001d1d5057140_Images/63ced670c8d001d1d5057140_Image_9.jpeg,liked,2.455989137,,,,,,,,,,,,,,
,,,,,,,space,9.6314,NAN,,NAN,,0,125,125,125,1,126,Taylor,Acc,Participant_Images/63ced670c8d001d1d5057140/63ced670c8d001d1d5057140_Images/63ced670c8d001d1d5057140_Image_15.jpeg,liked,3.79605092,,,,,,,,,,,,,,
,,,,,,,space,3.0394,NAN,,NAN,,0,126,126,126,1,127,Taylor,Acc,Participant_Images/63ced670c8d001d1d5057140/63ced670c8d001d1d5057140_Images/63ced670c8d001d1d5057140_Image_23.jpeg,did not like,3.562416326,,,,,,,,,,,,,,
,,,,,,,space,44.8154,NAN,,NAN,,0,127,127,127,1,128,Taylor,Acc,Participant_Images/63ced670c8d001d1d5057140/63ced670c8d001d1d5057140_Images/63ced670c8d001d1d5057140_Image_8.jpeg,liked,2.843822497,,,,,,,,,,,,,,
,,,,,,,space,2.6542,NAN,,NAN,,0,128,128,128,1,129,Taylor,Acc,Participant_Images/63ced670c8d001d1d5057140/63ced670c8d001d1d5057140_Images/63ced670c8d001d1d5057140_Image_4.jpeg,did not like,3.546495948,,,,,,,,,,,,,,
,,,,,,,,,,,,,,,,,,,,,,,,s,1,3.2394,h,space,6.3382,0,0,0,0,1,1.2147,,
,,,,,,,,,NAN,,NAN,,0,129,129,129,1,130,Taylor,Acc,Participant_Images/63ced670c8d001d1d5057140/63ced670c8d001d1d5057140_Images/63ced670c8d001d1d5057140_Image_12.jpeg,liked,1.672012706,,,,,,,,,,,,,,
,,,,,,,space,2.3369,NAN,,NAN,,0,130,130,130,1,131,Taylor,Acc,Participant_Images/63ced670c8d001d1d5057140/63ced670c8d001d1d5057140_Images/63ced670c8d001d1d5057140_Image_29.jpeg,liked,4.942172136,,,,,,,,,,,,,,
,,,,,,,space,3.2148,NAN,,NAN,,0,131,131,131,1,132,Taylor,Acc,Participant_Images/63ced670c8d001d1d5057140/63ced670c8d001d1d5057140_Images/63ced670c8d001d1d5057140_Image_20.jpeg,liked,2.50187214,,,,,,,,,,,,,,
,,,,,,,space,1.8562,NAN,,NAN,,0,132,132,132,1,133,Taylor,Acc,Participant_Images/63ced670c8d001d1d5057140/63ced670c8d001d1d5057140_Images/63ced670c8d001d1d5057140_Image_14.jpeg,did not like,2.071164779,,,,,,,,,,,,,,
,,,,,,,space,0.4713,NAN,,NAN,,0,133,133,133,1,134,Taylor,Acc,Participant_Images/63ced670c8d001d1d5057140/63ced670c8d001d1d5057140_Images/63ced670c8d001d1d5057140_Image_21.jpeg,did not like,5.336503566,,,,,,,,,,,,,,
,,,,,,,,,,,,,,,,,,,,,,,,s,1,2.669,h,space,1.4838,0,0,0,0,1,1.4459,,
,,,,,,,,,NAN,,NAN,,0,134,134,134,1,135,Taylor,Acc,Participant_Images/63ced670c8d001d1d5057140/63ced670c8d001d1d5057140_Images/63ced670c8d001d1d5057140_Image_5.jpeg,did not like,2.642157193,,,,,,,,,,,,,,
,,,,,,,space,1.1693,NAN,,NAN,,0,135,135,135,1,136,Taylor,Acc,Participant_Images/63ced670c8d001d1d5057140/63ced670c8d001d1d5057140_Images/63ced670c8d001d1d5057140_Image_28.jpeg,liked,4.456234322,,,,,,,,,,,,,,
,,,,,,,space,0.4218,NAN,,NAN,,0,136,136,136,1,137,Taylor,Acc,Participant_Images/63ced670c8d001d1d5057140/63ced670c8d001d1d5057140_Images/63ced670c8d001d1d5057140_Image_22.jpeg,did not like,4.438512181,,,,,,,,,,,,,,
,,,,,,,space,1.5398,NAN,,NAN,,0,137,137,137,1,138,Taylor,Acc,Participant_Images/63ced670c8d001d1d5057140/63ced670c8d001d1d5057140_Images/63ced670c8d001d1d5057140_Image_19.jpeg,liked,2.682944783,,,,,,,,,,,,,,
,,,,,,,space,6.1247,NAN,,NAN,,0,138,138,138,1,139,Taylor,Acc,Participant_Images/63ced670c8d001d1d5057140/63ced670c8d001d1d5057140_Images/63ced670c8d001d1d5057140_Image_6.jpeg,liked,4.51984296,,,,,,,,,,,,,,
,,,,,,,,,,,,,,,,,,,,,,,,,999,,,space,1.8759,0,0,0,0,1,,,
,,,,,,,,,NAN,,NAN,,0,139,139,139,1,140,Taylor,Acc,Participant_Images/63ced670c8d001d1d5057140/63ced670c8d001d1d5057140_Images/63ced670c8d001d1d5057140_Image_1.jpeg,liked,3.195382774,,,,,,,,,,,,,,
,,,,,,,space,6.2066,NAN,,NAN,,0,140,140,140,1,141,Taylor,Acc,Participant_Images/63ced670c8d001d1d5057140/63ced670c8d001d1d5057140_Images/63ced670c8d001d1d5057140_Image_16.jpeg,liked,1.779333479,,,,,,,,,,,,,,
,,,,,,,space,0.8414,NAN,,NAN,,0,141,141,141,1,142,Taylor,Acc,Participant_Images/63ced670c8d001d1d5057140/63ced670c8d001d1d5057140_Images/63ced670c8d001d1d5057140_Image_11.jpeg,liked,4.312468682,,,,,,,,,,,,,,
,,,,,,,space,2.0227,NAN,,NAN,,0,142,142,142,1,143,Taylor,Acc,Participant_Images/63ced670c8d001d1d5057140/63ced670c8d001d1d5057140_Images/63ced670c8d001d1d5057140_Image_27.jpeg,liked,4.940433059,,,,,,,,,,,,,,
,,,,,,,space,0.459,NAN,,NAN,,0,143,143,143,1,144,Taylor,Acc,Participant_Images/63ced670c8d001d1d5057140/63ced670c8d001d1d5057140_Images/63ced670c8d001d1d5057140_Image_17.jpeg,liked,2.7105123,,,,,,,,,,,,,,
,,,,,,,,,,,,,,,,,,,,,,,,s,1,1.6105,h,space,1.1551,0,0,0,0,1,0.4044,,
,,,,,,,,,NAN,,NAN,,0,144,144,144,1,145,Taylor,Acc,Participant_Images/63ced670c8d001d1d5057140/63ced670c8d001d1d5057140_Images/63ced670c8d001d1d5057140_Image_30.jpeg,liked,3.602308302,,,,,,,,,,,,,,
,,,,,,,space,1.5388,NAN,,NAN,,0,145,145,145,1,146,Taylor,Acc,Participant_Images/63ced670c8d001d1d5057140/63ced670c8d001d1d5057140_Images/63ced670c8d001d1d5057140_Image_2.jpeg,liked,4.106391878,,,,,,,,,,,,,,
,,,,,,,space,0.5178,NAN,,NAN,,0,146,146,146,1,147,Taylor,Acc,Participant_Images/63ced670c8d001d1d5057140/63ced670c8d001d1d5057140_Images/63ced670c8d001d1d5057140_Image_3.jpeg,did not like,3.799433026,,,,,,,,,,,,,,
,,,,,,,space,0.7223,NAN,,NAN,,0,147,147,147,1,148,Taylor,Acc,Participant_Images/63ced670c8d001d1d5057140/63ced670c8d001d1d5057140_Images/63ced670c8d001d1d5057140_Image_18.jpeg,did not like,5.246980764,,,,,,,,,,,,,,
,,,,,,,space,1.0178,NAN,,NAN,,0,148,148,148,1,149,Taylor,Acc,Participant_Images/63ced670c8d001d1d5057140/63ced670c8d001d1d5057140_Images/63ced670c8d001d1d5057140_Image_10.jpeg,liked,3.30081769,,,,,,,,,,,,,,
,,,,,,,,,,,,,,,,,,,,,,,,s,1,1.593,h,space,0.5981,0,0,0,0,1,0.3132,,
,,,,,,,,,4,,7,,0,149,149,149,1,150,Taylor,Acc,Participant_Images/63ced670c8d001d1d5057140/63ced670c8d001d1d5057140_Images/63ced670c8d001d1d5057140_Image_25.jpeg,liked,1.661473164,,,,,,,,,,,,,,
,,,,,,,,,,,,,,,,,,,,,,,,,,,,,,,,,,,,space,1.8082
