PROLIFIC_ID,endwelcomescreen_keys.keys,endwelcomescreen_keys.rt,endinstructionscreen_keys.keys,endinstructionscreen_keys.rt,endpartnermatch_keys.keys,endpartnermatch_keys.rt,sharenextphoto_key.keys,sharenextphoto_key.rt,salience_rating,key_resp.keys,stress_level,stresslevel_keypress.keys,entiretaskloop.thisRepN,entiretaskloop.thisTrialN,entiretaskloop.thisN,entiretaskloop.thisIndex,entiretaskloop.ran,TrialNumber,Partner,Condition,Photos,Feedback,FeedbackWait,choice_keys.keys,playlottery,resumeafterlottery_keys.keys,resumeafterlottery_keys.rt,lotteryloop.thisRepN,lotteryloop.thisTrialN,lotteryloop.thisN,lotteryloop.thisIndex,lotteryloop.ran,choice_keys.rt,lotteryguess_keys.keys,lotteryguess_keys.rt,end_screen_keys.keys,end_screen_keys.rt
63d1b0363f9bd5a6062dfb1c,space,7.7062,,,,,,,,,,,,,,,,,,,,,,,,,,,,,,,,,,,
63d1b0363f9bd5a6062dfb1c,,,,,,,,,,,,,,,,,,,,,,,,,,,,,,,,,,,,,
63d1b0363f9bd5a6062dfb1c,,,space,58.369,,,,,,,,,,,,,,,,,,,,,,,,,,,,,,,,,
63d1b0363f9bd5a6062dfb1c,,,,,space,3.6546,space,1.2927,NAN,,NAN,,0.0,0.0,0.0,0.0,1.0,1.0,Sam,Neutral,Participant_Images/63d1b0363f9bd5a6062dfb1c/63d1b0363f9bd5a6062dfb1c_Images/63d1b0363f9bd5a6062dfb1c_Image_2.jpeg,did not like,3.613205605,,,,,,,,,,,,,,
63d1b0363f9bd5a6062dfb1c,,,,,,,space,1.1436,NAN,,NAN,,0.0,1.0,1.0,1.0,1.0,2.0,Sam,Neutral,Participant_Images/63d1b0363f9bd5a6062dfb1c/63d1b0363f9bd5a6062dfb1c_Images/63d1b0363f9bd5a6062dfb1c_Image_20.jpeg,did not like,4.988446431,,,,,,,,,,,,,,
63d1b0363f9bd5a6062dfb1c,,,,,,,space,1.3857,NAN,,NAN,,0.0,2.0,2.0,2.0,1.0,3.0,Sam,Neutral,Participant_Images/63d1b0363f9bd5a6062dfb1c/63d1b0363f9bd5a6062dfb1c_Images/63d1b0363f9bd5a6062dfb1c_Image_11.jpeg,did not like,3.470791822,,,,,,,,,,,,,,
63d1b0363f9bd5a6062dfb1c,,,,,,,space,6.9124,NAN,,NAN,,0.0,3.0,3.0,3.0,1.0,4.0,Sam,Neutral,Participant_Images/63d1b0363f9bd5a6062dfb1c/63d1b0363f9bd5a6062dfb1c_Images/63d1b0363f9bd5a6062dfb1c_Image_25.jpeg,did not like,3.820572462,,,,,,,,,,,,,,
63d1b0363f9bd5a6062dfb1c,,,,,,,,,,,,,,,,,,,,,,,,,999.0,space,3.889,0.0,0.0,0.0,0.0,1.0,,,,,
63d1b0363f9bd5a6062dfb1c,,,,,,,,,NAN,,NAN,,0.0,4.0,4.0,4.0,1.0,5.0,Sam,Neutral,Participant_Images/63d1b0363f9bd5a6062dfb1c/63d1b0363f9bd5a6062dfb1c_Images/63d1b0363f9bd5a6062dfb1c_Image_12.jpeg,liked,2.455989137,,,,,,,,,,,,,,
63d1b0363f9bd5a6062dfb1c,,,,,,,space,0.7703,NAN,,NAN,,0.0,5.0,5.0,5.0,1.0,6.0,Sam,Neutral,Participant_Images/63d1b0363f9bd5a6062dfb1c/63d1b0363f9bd5a6062dfb1c_Images/63d1b0363f9bd5a6062dfb1c_Image_3.jpeg,did not like,3.79605092,,,,,,,,,,,,,,
63d1b0363f9bd5a6062dfb1c,,,,,,,space,0.7762,NAN,,NAN,,0.0,6.0,6.0,6.0,1.0,7.0,Sam,Neutral,Participant_Images/63d1b0363f9bd5a6062dfb1c/63d1b0363f9bd5a6062dfb1c_Images/63d1b0363f9bd5a6062dfb1c_Image_8.jpeg,did not like,3.562416326,,,,,,,,,,,,,,
63d1b0363f9bd5a6062dfb1c,,,,,,,space,1.2874,NAN,,NAN,,0.0,7.0,7.0,7.0,1.0,8.0,Sam,Neutral,Participant_Images/63d1b0363f9bd5a6062dfb1c/63d1b0363f9bd5a6062dfb1c_Images/63d1b0363f9bd5a6062dfb1c_Image_30.jpeg,liked,2.843822497,,,,,,,,,,,,,,
63d1b0363f9bd5a6062dfb1c,,,,,,,space,0.3802,NAN,,NAN,,0.0,8.0,8.0,8.0,1.0,9.0,Sam,Neutral,Participant_Images/63d1b0363f9bd5a6062dfb1c/63d1b0363f9bd5a6062dfb1c_Images/63d1b0363f9bd5a6062dfb1c_Image_15.jpeg,did not like,3.546495948,,,,,,,,,,,,,,
63d1b0363f9bd5a6062dfb1c,,,,,,,,,,,,,,,,,,,,,,,,s,1.0,space,1.2323,0.0,0.0,0.0,0.0,1.0,1.5893,,,,
63d1b0363f9bd5a6062dfb1c,,,,,,,,,NAN,,NAN,,0.0,9.0,9.0,9.0,1.0,10.0,Sam,Neutral,Participant_Images/63d1b0363f9bd5a6062dfb1c/63d1b0363f9bd5a6062dfb1c_Images/63d1b0363f9bd5a6062dfb1c_Image_13.jpeg,liked,1.672012706,,,,,,,,,,,,,,
63d1b0363f9bd5a6062dfb1c,,,,,,,space,1.1934,NAN,,NAN,,0.0,10.0,10.0,10.0,1.0,11.0,Sam,Neutral,Participant_Images/63d1b0363f9bd5a6062dfb1c/63d1b0363f9bd5a6062dfb1c_Images/63d1b0363f9bd5a6062dfb1c_Image_10.jpeg,liked,4.942172136,,,,,,,,,,,,,,
63d1b0363f9bd5a6062dfb1c,,,,,,,space,0.5932,NAN,,NAN,,0.0,11.0,11.0,11.0,1.0,12.0,Sam,Neutral,Participant_Images/63d1b0363f9bd5a6062dfb1c/63d1b0363f9bd5a6062dfb1c_Images/63d1b0363f9bd5a6062dfb1c_Image_19.jpeg,liked,2.50187214,,,,,,,,,,,,,,
63d1b0363f9bd5a6062dfb1c,,,,,,,space,0.5638,NAN,,NAN,,0.0,12.0,12.0,12.0,1.0,13.0,Sam,Neutral,Participant_Images/63d1b0363f9bd5a6062dfb1c/63d1b0363f9bd5a6062dfb1c_Images/63d1b0363f9bd5a6062dfb1c_Image_7.jpeg,did not like,2.071164779,,,,,,,,,,,,,,
63d1b0363f9bd5a6062dfb1c,,,,,,,space,0.4027,NAN,,NAN,,0.0,13.0,13.0,13.0,1.0,14.0,Sam,Neutral,Participant_Images/63d1b0363f9bd5a6062dfb1c/63d1b0363f9bd5a6062dfb1c_Images/63d1b0363f9bd5a6062dfb1c_Image_16.jpeg,did not like,5.336503566,,,,,,,,,,,,,,
63d1b0363f9bd5a6062dfb1c,,,,,,,,,,,,,,,,,,,,,,,,s,1.0,space,1.0273,0.0,0.0,0.0,0.0,1.0,3.096,h,1.4946,,
63d1b0363f9bd5a6062dfb1c,,,,,,,,,NAN,,NAN,,0.0,14.0,14.0,14.0,1.0,15.0,Sam,Neutral,Participant_Images/63d1b0363f9bd5a6062dfb1c/63d1b0363f9bd5a6062dfb1c_Images/63d1b0363f9bd5a6062dfb1c_Image_28.jpeg,liked,2.642157193,,,,,,,,,,,,,,
63d1b0363f9bd5a6062dfb1c,,,,,,,space,0.5513,NAN,,NAN,,0.0,15.0,15.0,15.0,1.0,16.0,Sam,Neutral,Participant_Images/63d1b0363f9bd5a6062dfb1c/63d1b0363f9bd5a6062dfb1c_Images/63d1b0363f9bd5a6062dfb1c_Image_4.jpeg,did not like,4.456234322,,,,,,,,,,,,,,
63d1b0363f9bd5a6062dfb1c,,,,,,,space,0.5582,NAN,,NAN,,0.0,16.0,16.0,16.0,1.0,17.0,Sam,Neutral,Participant_Images/63d1b0363f9bd5a6062dfb1c/63d1b0363f9bd5a6062dfb1c_Images/63d1b0363f9bd5a6062dfb1c_Image_18.jpeg,liked,4.438512181,,,,,,,,,,,,,,
63d1b0363f9bd5a6062dfb1c,,,,,,,space,0.7817,NAN,,NAN,,0.0,17.0,17.0,17.0,1.0,18.0,Sam,Neutral,Participant_Images/63d1b0363f9bd5a6062dfb1c/63d1b0363f9bd5a6062dfb1c_Images/63d1b0363f9bd5a6062dfb1c_Image_1.jpeg,liked,2.682944783,,,,,,,,,,,,,,
63d1b0363f9bd5a6062dfb1c,,,,,,,space,0.4345,NAN,,NAN,,0.0,18.0,18.0,18.0,1.0,19.0,Sam,Neutral,Participant_Images/63d1b0363f9bd5a6062dfb1c/63d1b0363f9bd5a6062dfb1c_Images/63d1b0363f9bd5a6062dfb1c_Image_24.jpeg,did not like,4.51984296,,,,,,,,,,,,,,
63d1b0363f9bd5a6062dfb1c,,,,,,,,,,,,,,,,,,,,,,,,,999.0,space,1.1335,0.0,0.0,0.0,0.0,1.0,,,,,
63d1b0363f9bd5a6062dfb1c,,,,,,,,,NAN,,NAN,,0.0,19.0,19.0,19.0,1.0,20.0,Sam,Neutral,Participant_Images/63d1b0363f9bd5a6062dfb1c/63d1b0363f9bd5a6062dfb1c_Images/63d1b0363f9bd5a6062dfb1c_Image_22.jpeg,liked,3.195382774,,,,,,,,,,,,,,
63d1b0363f9bd5a6062dfb1c,,,,,,,space,0.4782,NAN,,NAN,,0.0,20.0,20.0,20.0,1.0,21.0,Sam,Neutral,Participant_Images/63d1b0363f9bd5a6062dfb1c/63d1b0363f9bd5a6062dfb1c_Images/63d1b0363f9bd5a6062dfb1c_Image_26.jpeg,did not like,1.779333479,,,,,,,,,,,,,,
63d1b0363f9bd5a6062dfb1c,,,,,,,space,1.076,NAN,,NAN,,0.0,21.0,21.0,21.0,1.0,22.0,Sam,Neutral,Participant_Images/63d1b0363f9bd5a6062dfb1c/63d1b0363f9bd5a6062dfb1c_Images/63d1b0363f9bd5a6062dfb1c_Image_23.jpeg,did not like,4.312468682,,,,,,,,,,,,,,
63d1b0363f9bd5a6062dfb1c,,,,,,,space,0.3856,NAN,,NAN,,0.0,22.0,22.0,22.0,1.0,23.0,Sam,Neutral,Participant_Images/63d1b0363f9bd5a6062dfb1c/63d1b0363f9bd5a6062dfb1c_Images/63d1b0363f9bd5a6062dfb1c_Image_6.jpeg,liked,4.940433059,,,,,,,,,,,,,,
63d1b0363f9bd5a6062dfb1c,,,,,,,space,2.2184,NAN,,NAN,,0.0,23.0,23.0,23.0,1.0,24.0,Sam,Neutral,Participant_Images/63d1b0363f9bd5a6062dfb1c/63d1b0363f9bd5a6062dfb1c_Images/63d1b0363f9bd5a6062dfb1c_Image_14.jpeg,liked,2.7105123,,,,,,,,,,,,,,
63d1b0363f9bd5a6062dfb1c,,,,,,,,,,,,,,,,,,,,,,,,c,0.0,space,0.6403,0.0,0.0,0.0,0.0,1.0,3.3341,,,,
63d1b0363f9bd5a6062dfb1c,,,,,,,,,NAN,,NAN,,0.0,24.0,24.0,24.0,1.0,25.0,Sam,Neutral,Participant_Images/63d1b0363f9bd5a6062dfb1c/63d1b0363f9bd5a6062dfb1c_Images/63d1b0363f9bd5a6062dfb1c_Image_29.jpeg,liked,3.602308302,,,,,,,,,,,,,,
63d1b0363f9bd5a6062dfb1c,,,,,,,space,0.9433,NAN,,NAN,,0.0,25.0,25.0,25.0,1.0,26.0,Sam,Neutral,Participant_Images/63d1b0363f9bd5a6062dfb1c/63d1b0363f9bd5a6062dfb1c_Images/63d1b0363f9bd5a6062dfb1c_Image_21.jpeg,liked,4.106391878,,,,,,,,,,,,,,
63d1b0363f9bd5a6062dfb1c,,,,,,,space,0.3959,NAN,,NAN,,0.0,26.0,26.0,26.0,1.0,27.0,Sam,Neutral,Participant_Images/63d1b0363f9bd5a6062dfb1c/63d1b0363f9bd5a6062dfb1c_Images/63d1b0363f9bd5a6062dfb1c_Image_17.jpeg,liked,3.799433026,,,,,,,,,,,,,,
63d1b0363f9bd5a6062dfb1c,,,,,,,space,0.4513,NAN,,NAN,,0.0,27.0,27.0,27.0,1.0,28.0,Sam,Neutral,Participant_Images/63d1b0363f9bd5a6062dfb1c/63d1b0363f9bd5a6062dfb1c_Images/63d1b0363f9bd5a6062dfb1c_Image_5.jpeg,liked,5.246980764,,,,,,,,,,,,,,
63d1b0363f9bd5a6062dfb1c,,,,,,,space,0.7399,NAN,,NAN,,0.0,28.0,28.0,28.0,1.0,29.0,Sam,Neutral,Participant_Images/63d1b0363f9bd5a6062dfb1c/63d1b0363f9bd5a6062dfb1c_Images/63d1b0363f9bd5a6062dfb1c_Image_9.jpeg,did not like,3.30081769,,,,,,,,,,,,,,
63d1b0363f9bd5a6062dfb1c,,,,,,,,,,,,,,,,,,,,,,,,c,0.0,space,0.8902,0.0,0.0,0.0,0.0,1.0,3.2542,,,,
63d1b0363f9bd5a6062dfb1c,,,,,,,,,2,,6,,0.0,29.0,29.0,29.0,1.0,30.0,Sam,Neutral,Participant_Images/63d1b0363f9bd5a6062dfb1c/63d1b0363f9bd5a6062dfb1c_Images/63d1b0363f9bd5a6062dfb1c_Image_27.jpeg,did not like,1.661473164,,,,,,,,,,,,,,
63d1b0363f9bd5a6062dfb1c,,,,,space,2.1084,space,0.3675,NAN,,NAN,,0.0,30.0,30.0,30.0,1.0,31.0,Charlie,Acc,Participant_Images/63d1b0363f9bd5a6062dfb1c/63d1b0363f9bd5a6062dfb1c_Images/63d1b0363f9bd5a6062dfb1c_Image_3.jpeg,liked,3.613205605,,,,,,,,,,,,,,
63d1b0363f9bd5a6062dfb1c,,,,,,,space,0.2836,NAN,,NAN,,0.0,31.0,31.0,31.0,1.0,32.0,Charlie,Acc,Participant_Images/63d1b0363f9bd5a6062dfb1c/63d1b0363f9bd5a6062dfb1c_Images/63d1b0363f9bd5a6062dfb1c_Image_29.jpeg,did not like,4.988446431,,,,,,,,,,,,,,
63d1b0363f9bd5a6062dfb1c,,,,,,,space,0.4315,NAN,,NAN,,0.0,32.0,32.0,32.0,1.0,33.0,Charlie,Acc,Participant_Images/63d1b0363f9bd5a6062dfb1c/63d1b0363f9bd5a6062dfb1c_Images/63d1b0363f9bd5a6062dfb1c_Image_26.jpeg,liked,3.470791822,,,,,,,,,,,,,,
63d1b0363f9bd5a6062dfb1c,,,,,,,space,0.6164,NAN,,NAN,,0.0,33.0,33.0,33.0,1.0,34.0,Charlie,Acc,Participant_Images/63d1b0363f9bd5a6062dfb1c/63d1b0363f9bd5a6062dfb1c_Images/63d1b0363f9bd5a6062dfb1c_Image_13.jpeg,liked,3.820572462,,,,,,,,,,,,,,
63d1b0363f9bd5a6062dfb1c,,,,,,,,,,,,,,,,,,,,,,,,c,0.0,space,1.1898,0.0,0.0,0.0,0.0,1.0,1.8054,,,,
63d1b0363f9bd5a6062dfb1c,,,,,,,,,NAN,,NAN,,0.0,34.0,34.0,34.0,1.0,35.0,Charlie,Acc,Participant_Images/63d1b0363f9bd5a6062dfb1c/63d1b0363f9bd5a6062dfb1c_Images/63d1b0363f9bd5a6062dfb1c_Image_4.jpeg,did not like,2.455989137,,,,,,,,,,,,,,
63d1b0363f9bd5a6062dfb1c,,,,,,,space,1.0752,NAN,,NAN,,0.0,35.0,35.0,35.0,1.0,36.0,Charlie,Acc,Participant_Images/63d1b0363f9bd5a6062dfb1c/63d1b0363f9bd5a6062dfb1c_Images/63d1b0363f9bd5a6062dfb1c_Image_7.jpeg,liked,3.79605092,,,,,,,,,,,,,,
63d1b0363f9bd5a6062dfb1c,,,,,,,space,0.7338,NAN,,NAN,,0.0,36.0,36.0,36.0,1.0,37.0,Charlie,Acc,Participant_Images/63d1b0363f9bd5a6062dfb1c/63d1b0363f9bd5a6062dfb1c_Images/63d1b0363f9bd5a6062dfb1c_Image_18.jpeg,did not like,3.562416326,,,,,,,,,,,,,,
63d1b0363f9bd5a6062dfb1c,,,,,,,space,0.3774,NAN,,NAN,,0.0,37.0,37.0,37.0,1.0,38.0,Charlie,Acc,Participant_Images/63d1b0363f9bd5a6062dfb1c/63d1b0363f9bd5a6062dfb1c_Images/63d1b0363f9bd5a6062dfb1c_Image_16.jpeg,did not like,2.843822497,,,,,,,,,,,,,,
63d1b0363f9bd5a6062dfb1c,,,,,,,space,1.3389,NAN,,NAN,,0.0,38.0,38.0,38.0,1.0,39.0,Charlie,Acc,Participant_Images/63d1b0363f9bd5a6062dfb1c/63d1b0363f9bd5a6062dfb1c_Images/63d1b0363f9bd5a6062dfb1c_Image_2.jpeg,liked,3.546495948,,,,,,,,,,,,,,
63d1b0363f9bd5a6062dfb1c,,,,,,,,,,,,,,,,,,,,,,,,s,1.0,space,0.8697,0.0,0.0,0.0,0.0,1.0,2.8804,,,,
63d1b0363f9bd5a6062dfb1c,,,,,,,,,NAN,,NAN,,0.0,39.0,39.0,39.0,1.0,40.0,Charlie,Acc,Participant_Images/63d1b0363f9bd5a6062dfb1c/63d1b0363f9bd5a6062dfb1c_Images/63d1b0363f9bd5a6062dfb1c_Image_19.jpeg,liked,1.672012706,,,,,,,,,,,,,,
63d1b0363f9bd5a6062dfb1c,,,,,,,space,3.6395,NAN,,NAN,,0.0,40.0,40.0,40.0,1.0,41.0,Charlie,Acc,Participant_Images/63d1b0363f9bd5a6062dfb1c/63d1b0363f9bd5a6062dfb1c_Images/63d1b0363f9bd5a6062dfb1c_Image_6.jpeg,did not like,4.942172136,,,,,,,,,,,,,,
63d1b0363f9bd5a6062dfb1c,,,,,,,space,0.4893,NAN,,NAN,,0.0,41.0,41.0,41.0,1.0,42.0,Charlie,Acc,Participant_Images/63d1b0363f9bd5a6062dfb1c/63d1b0363f9bd5a6062dfb1c_Images/63d1b0363f9bd5a6062dfb1c_Image_21.jpeg,did not like,2.50187214,,,,,,,,,,,,,,
63d1b0363f9bd5a6062dfb1c,,,,,,,space,1.0834,NAN,,NAN,,0.0,42.0,42.0,42.0,1.0,43.0,Charlie,Acc,Participant_Images/63d1b0363f9bd5a6062dfb1c/63d1b0363f9bd5a6062dfb1c_Images/63d1b0363f9bd5a6062dfb1c_Image_1.jpeg,liked,2.071164779,,,,,,,,,,,,,,
63d1b0363f9bd5a6062dfb1c,,,,,,,space,0.7306,NAN,,NAN,,0.0,43.0,43.0,43.0,1.0,44.0,Charlie,Acc,Participant_Images/63d1b0363f9bd5a6062dfb1c/63d1b0363f9bd5a6062dfb1c_Images/63d1b0363f9bd5a6062dfb1c_Image_30.jpeg,liked,5.336503566,,,,,,,,,,,,,,
63d1b0363f9bd5a6062dfb1c,,,,,,,,,,,,,,,,,,,,,,,,s,1.0,space,0.7274,0.0,0.0,0.0,0.0,1.0,1.9226,,,,
63d1b0363f9bd5a6062dfb1c,,,,,,,,,NAN,,NAN,,0.0,44.0,44.0,44.0,1.0,45.0,Charlie,Acc,Participant_Images/63d1b0363f9bd5a6062dfb1c/63d1b0363f9bd5a6062dfb1c_Images/63d1b0363f9bd5a6062dfb1c_Image_28.jpeg,liked,2.642157193,,,,,,,,,,,,,,
63d1b0363f9bd5a6062dfb1c,,,,,,,space,2.8133,NAN,,NAN,,0.0,45.0,45.0,45.0,1.0,46.0,Charlie,Acc,Participant_Images/63d1b0363f9bd5a6062dfb1c/63d1b0363f9bd5a6062dfb1c_Images/63d1b0363f9bd5a6062dfb1c_Image_9.jpeg,did not like,4.456234322,,,,,,,,,,,,,,
63d1b0363f9bd5a6062dfb1c,,,,,,,space,0.2816,NAN,,NAN,,0.0,46.0,46.0,46.0,1.0,47.0,Charlie,Acc,Participant_Images/63d1b0363f9bd5a6062dfb1c/63d1b0363f9bd5a6062dfb1c_Images/63d1b0363f9bd5a6062dfb1c_Image_23.jpeg,liked,4.438512181,,,,,,,,,,,,,,
63d1b0363f9bd5a6062dfb1c,,,,,,,space,0.4076,NAN,,NAN,,0.0,47.0,47.0,47.0,1.0,48.0,Charlie,Acc,Participant_Images/63d1b0363f9bd5a6062dfb1c/63d1b0363f9bd5a6062dfb1c_Images/63d1b0363f9bd5a6062dfb1c_Image_27.jpeg,did not like,2.682944783,,,,,,,,,,,,,,
63d1b0363f9bd5a6062dfb1c,,,,,,,space,1.4034,NAN,,NAN,,0.0,48.0,48.0,48.0,1.0,49.0,Charlie,Acc,Participant_Images/63d1b0363f9bd5a6062dfb1c/63d1b0363f9bd5a6062dfb1c_Images/63d1b0363f9bd5a6062dfb1c_Image_10.jpeg,did not like,4.51984296,,,,,,,,,,,,,,
63d1b0363f9bd5a6062dfb1c,,,,,,,,,,,,,,,,,,,,,,,,s,1.0,space,0.7525,0.0,0.0,0.0,0.0,1.0,1.0164,h,0.506,,
63d1b0363f9bd5a6062dfb1c,,,,,,,,,NAN,,NAN,,0.0,49.0,49.0,49.0,1.0,50.0,Charlie,Acc,Participant_Images/63d1b0363f9bd5a6062dfb1c/63d1b0363f9bd5a6062dfb1c_Images/63d1b0363f9bd5a6062dfb1c_Image_24.jpeg,liked,3.195382774,,,,,,,,,,,,,,
63d1b0363f9bd5a6062dfb1c,,,,,,,space,4.6576,NAN,,NAN,,0.0,50.0,50.0,50.0,1.0,51.0,Charlie,Acc,Participant_Images/63d1b0363f9bd5a6062dfb1c/63d1b0363f9bd5a6062dfb1c_Images/63d1b0363f9bd5a6062dfb1c_Image_15.jpeg,liked,1.779333479,,,,,,,,,,,,,,
63d1b0363f9bd5a6062dfb1c,,,,,,,space,0.6061,NAN,,NAN,,0.0,51.0,51.0,51.0,1.0,52.0,Charlie,Acc,Participant_Images/63d1b0363f9bd5a6062dfb1c/63d1b0363f9bd5a6062dfb1c_Images/63d1b0363f9bd5a6062dfb1c_Image_14.jpeg,liked,4.312468682,,,,,,,,,,,,,,
63d1b0363f9bd5a6062dfb1c,,,,,,,space,0.4098,NAN,,NAN,,0.0,52.0,52.0,52.0,1.0,53.0,Charlie,Acc,Participant_Images/63d1b0363f9bd5a6062dfb1c/63d1b0363f9bd5a6062dfb1c_Images/63d1b0363f9bd5a6062dfb1c_Image_25.jpeg,liked,4.940433059,,,,,,,,,,,,,,
63d1b0363f9bd5a6062dfb1c,,,,,,,space,0.6019,NAN,,NAN,,0.0,53.0,53.0,53.0,1.0,54.0,Charlie,Acc,Participant_Images/63d1b0363f9bd5a6062dfb1c/63d1b0363f9bd5a6062dfb1c_Images/63d1b0363f9bd5a6062dfb1c_Image_20.jpeg,liked,2.7105123,,,,,,,,,,,,,,
63d1b0363f9bd5a6062dfb1c,,,,,,,,,,,,,,,,,,,,,,,,s,1.0,space,0.5583,0.0,0.0,0.0,0.0,1.0,1.1098,h,0.3485,,
63d1b0363f9bd5a6062dfb1c,,,,,,,,,NAN,,NAN,,0.0,54.0,54.0,54.0,1.0,55.0,Charlie,Acc,Participant_Images/63d1b0363f9bd5a6062dfb1c/63d1b0363f9bd5a6062dfb1c_Images/63d1b0363f9bd5a6062dfb1c_Image_8.jpeg,liked,3.602308302,,,,,,,,,,,,,,
63d1b0363f9bd5a6062dfb1c,,,,,,,space,0.3946,NAN,,NAN,,0.0,55.0,55.0,55.0,1.0,56.0,Charlie,Acc,Participant_Images/63d1b0363f9bd5a6062dfb1c/63d1b0363f9bd5a6062dfb1c_Images/63d1b0363f9bd5a6062dfb1c_Image_17.jpeg,liked,4.106391878,,,,,,,,,,,,,,
63d1b0363f9bd5a6062dfb1c,,,,,,,space,2.1528,NAN,,NAN,,0.0,56.0,56.0,56.0,1.0,57.0,Charlie,Acc,Participant_Images/63d1b0363f9bd5a6062dfb1c/63d1b0363f9bd5a6062dfb1c_Images/63d1b0363f9bd5a6062dfb1c_Image_5.jpeg,liked,3.799433026,,,,,,,,,,,,,,
63d1b0363f9bd5a6062dfb1c,,,,,,,space,0.6954,NAN,,NAN,,0.0,57.0,57.0,57.0,1.0,58.0,Charlie,Acc,Participant_Images/63d1b0363f9bd5a6062dfb1c/63d1b0363f9bd5a6062dfb1c_Images/63d1b0363f9bd5a6062dfb1c_Image_11.jpeg,liked,5.246980764,,,,,,,,,,,,,,
63d1b0363f9bd5a6062dfb1c,,,,,,,space,0.6791,NAN,,NAN,,0.0,58.0,58.0,58.0,1.0,59.0,Charlie,Acc,Participant_Images/63d1b0363f9bd5a6062dfb1c/63d1b0363f9bd5a6062dfb1c_Images/63d1b0363f9bd5a6062dfb1c_Image_12.jpeg,liked,3.30081769,,,,,,,,,,,,,,
63d1b0363f9bd5a6062dfb1c,,,,,,,,,,,,,,,,,,,,,,,,s,1.0,space,0.6491,0.0,0.0,0.0,0.0,1.0,0.9451,h,0.3018,,
63d1b0363f9bd5a6062dfb1c,,,,,,,,,5,,1,,0.0,59.0,59.0,59.0,1.0,60.0,Charlie,Acc,Participant_Images/63d1b0363f9bd5a6062dfb1c/63d1b0363f9bd5a6062dfb1c_Images/63d1b0363f9bd5a6062dfb1c_Image_22.jpeg,liked,1.661473164,,,,,,,,,,,,,,
63d1b0363f9bd5a6062dfb1c,,,,,space,0.7474,space,1.3049,NAN,,NAN,,0.0,60.0,60.0,60.0,1.0,61.0,Taylor,Rej,Participant_Images/63d1b0363f9bd5a6062dfb1c/63d1b0363f9bd5a6062dfb1c_Images/63d1b0363f9bd5a6062dfb1c_Image_30.jpeg,liked,3.613205605,,,,,,,,,,,,,,
63d1b0363f9bd5a6062dfb1c,,,,,,,space,0.3699,NAN,,NAN,,0.0,61.0,61.0,61.0,1.0,62.0,Taylor,Rej,Participant_Images/63d1b0363f9bd5a6062dfb1c/63d1b0363f9bd5a6062dfb1c_Images/63d1b0363f9bd5a6062dfb1c_Image_15.jpeg,liked,4.988446431,,,,,,,,,,,,,,
63d1b0363f9bd5a6062dfb1c,,,,,,,space,0.5612,NAN,,NAN,,0.0,62.0,62.0,62.0,1.0,63.0,Taylor,Rej,Participant_Images/63d1b0363f9bd5a6062dfb1c/63d1b0363f9bd5a6062dfb1c_Images/63d1b0363f9bd5a6062dfb1c_Image_10.jpeg,did not like,3.470791822,,,,,,,,,,,,,,
63d1b0363f9bd5a6062dfb1c,,,,,,,space,0.395,NAN,,NAN,,0.0,63.0,63.0,63.0,1.0,64.0,Taylor,Rej,Participant_Images/63d1b0363f9bd5a6062dfb1c/63d1b0363f9bd5a6062dfb1c_Images/63d1b0363f9bd5a6062dfb1c_Image_25.jpeg,did not like,3.820572462,,,,,,,,,,,,,,
63d1b0363f9bd5a6062dfb1c,,,,,,,,,,,,,,,,,,,,,,,,s,1.0,space,0.6184,0.0,0.0,0.0,0.0,1.0,1.3575,h,0.3171,,
63d1b0363f9bd5a6062dfb1c,,,,,,,,,NAN,,NAN,,0.0,64.0,64.0,64.0,1.0,65.0,Taylor,Rej,Participant_Images/63d1b0363f9bd5a6062dfb1c/63d1b0363f9bd5a6062dfb1c_Images/63d1b0363f9bd5a6062dfb1c_Image_24.jpeg,did not like,2.455989137,,,,,,,,,,,,,,
63d1b0363f9bd5a6062dfb1c,,,,,,,space,1.8592,NAN,,NAN,,0.0,65.0,65.0,65.0,1.0,66.0,Taylor,Rej,Participant_Images/63d1b0363f9bd5a6062dfb1c/63d1b0363f9bd5a6062dfb1c_Images/63d1b0363f9bd5a6062dfb1c_Image_28.jpeg,liked,3.79605092,,,,,,,,,,,,,,
63d1b0363f9bd5a6062dfb1c,,,,,,,space,1.3033,NAN,,NAN,,0.0,66.0,66.0,66.0,1.0,67.0,Taylor,Rej,Participant_Images/63d1b0363f9bd5a6062dfb1c/63d1b0363f9bd5a6062dfb1c_Images/63d1b0363f9bd5a6062dfb1c_Image_5.jpeg,liked,3.562416326,,,,,,,,,,,,,,
63d1b0363f9bd5a6062dfb1c,,,,,,,space,0.4083,NAN,,NAN,,0.0,67.0,67.0,67.0,1.0,68.0,Taylor,Rej,Participant_Images/63d1b0363f9bd5a6062dfb1c/63d1b0363f9bd5a6062dfb1c_Images/63d1b0363f9bd5a6062dfb1c_Image_8.jpeg,liked,2.843822497,,,,,,,,,,,,,,
63d1b0363f9bd5a6062dfb1c,,,,,,,space,0.9578,NAN,,NAN,,0.0,68.0,68.0,68.0,1.0,69.0,Taylor,Rej,Participant_Images/63d1b0363f9bd5a6062dfb1c/63d1b0363f9bd5a6062dfb1c_Images/63d1b0363f9bd5a6062dfb1c_Image_7.jpeg,did not like,3.546495948,,,,,,,,,,,,,,
63d1b0363f9bd5a6062dfb1c,,,,,,,,,,,,,,,,,,,,,,,,s,1.0,space,0.6466,0.0,0.0,0.0,0.0,1.0,3.0133,h,0.6422,,
63d1b0363f9bd5a6062dfb1c,,,,,,,,,NAN,,NAN,,0.0,69.0,69.0,69.0,1.0,70.0,Taylor,Rej,Participant_Images/63d1b0363f9bd5a6062dfb1c/63d1b0363f9bd5a6062dfb1c_Images/63d1b0363f9bd5a6062dfb1c_Image_19.jpeg,did not like,1.672012706,,,,,,,,,,,,,,
63d1b0363f9bd5a6062dfb1c,,,,,,,space,0.7652,NAN,,NAN,,0.0,70.0,70.0,70.0,1.0,71.0,Taylor,Rej,Participant_Images/63d1b0363f9bd5a6062dfb1c/63d1b0363f9bd5a6062dfb1c_Images/63d1b0363f9bd5a6062dfb1c_Image_18.jpeg,did not like,4.942172136,,,,,,,,,,,,,,
63d1b0363f9bd5a6062dfb1c,,,,,,,space,0.678,NAN,,NAN,,0.0,71.0,71.0,71.0,1.0,72.0,Taylor,Rej,Participant_Images/63d1b0363f9bd5a6062dfb1c/63d1b0363f9bd5a6062dfb1c_Images/63d1b0363f9bd5a6062dfb1c_Image_1.jpeg,did not like,2.50187214,,,,,,,,,,,,,,
63d1b0363f9bd5a6062dfb1c,,,,,,,space,0.5686,NAN,,NAN,,0.0,72.0,72.0,72.0,1.0,73.0,Taylor,Rej,Participant_Images/63d1b0363f9bd5a6062dfb1c/63d1b0363f9bd5a6062dfb1c_Images/63d1b0363f9bd5a6062dfb1c_Image_17.jpeg,did not like,2.071164779,,,,,,,,,,,,,,
63d1b0363f9bd5a6062dfb1c,,,,,,,space,0.6913,NAN,,NAN,,0.0,73.0,73.0,73.0,1.0,74.0,Taylor,Rej,Participant_Images/63d1b0363f9bd5a6062dfb1c/63d1b0363f9bd5a6062dfb1c_Images/63d1b0363f9bd5a6062dfb1c_Image_14.jpeg,liked,5.336503566,,,,,,,,,,,,,,
63d1b0363f9bd5a6062dfb1c,,,,,,,,,,,,,,,,,,,,,,,,s,1.0,space,0.8756,0.0,0.0,0.0,0.0,1.0,1.1298,h,0.6003,,
63d1b0363f9bd5a6062dfb1c,,,,,,,,,NAN,,NAN,,0.0,74.0,74.0,74.0,1.0,75.0,Taylor,Rej,Participant_Images/63d1b0363f9bd5a6062dfb1c/63d1b0363f9bd5a6062dfb1c_Images/63d1b0363f9bd5a6062dfb1c_Image_12.jpeg,liked,2.642157193,,,,,,,,,,,,,,
63d1b0363f9bd5a6062dfb1c,,,,,,,space,0.7928,NAN,,NAN,,0.0,75.0,75.0,75.0,1.0,76.0,Taylor,Rej,Participant_Images/63d1b0363f9bd5a6062dfb1c/63d1b0363f9bd5a6062dfb1c_Images/63d1b0363f9bd5a6062dfb1c_Image_13.jpeg,did not like,4.456234322,,,,,,,,,,,,,,
63d1b0363f9bd5a6062dfb1c,,,,,,,space,0.6116,NAN,,NAN,,0.0,76.0,76.0,76.0,1.0,77.0,Taylor,Rej,Participant_Images/63d1b0363f9bd5a6062dfb1c/63d1b0363f9bd5a6062dfb1c_Images/63d1b0363f9bd5a6062dfb1c_Image_27.jpeg,liked,4.438512181,,,,,,,,,,,,,,
63d1b0363f9bd5a6062dfb1c,,,,,,,space,0.9751,NAN,,NAN,,0.0,77.0,77.0,77.0,1.0,78.0,Taylor,Rej,Participant_Images/63d1b0363f9bd5a6062dfb1c/63d1b0363f9bd5a6062dfb1c_Images/63d1b0363f9bd5a6062dfb1c_Image_23.jpeg,did not like,2.682944783,,,,,,,,,,,,,,
63d1b0363f9bd5a6062dfb1c,,,,,,,space,0.7299,NAN,,NAN,,0.0,78.0,78.0,78.0,1.0,79.0,Taylor,Rej,Participant_Images/63d1b0363f9bd5a6062dfb1c/63d1b0363f9bd5a6062dfb1c_Images/63d1b0363f9bd5a6062dfb1c_Image_2.jpeg,did not like,4.51984296,,,,,,,,,,,,,,
63d1b0363f9bd5a6062dfb1c,,,,,,,,,,,,,,,,,,,,,,,,s,1.0,space,0.6212,0.0,0.0,0.0,0.0,1.0,0.8363,h,0.3072,,
63d1b0363f9bd5a6062dfb1c,,,,,,,,,NAN,,NAN,,0.0,79.0,79.0,79.0,1.0,80.0,Taylor,Rej,Participant_Images/63d1b0363f9bd5a6062dfb1c/63d1b0363f9bd5a6062dfb1c_Images/63d1b0363f9bd5a6062dfb1c_Image_6.jpeg,did not like,3.195382774,,,,,,,,,,,,,,
63d1b0363f9bd5a6062dfb1c,,,,,,,space,0.6541,NAN,,NAN,,0.0,80.0,80.0,80.0,1.0,81.0,Taylor,Rej,Participant_Images/63d1b0363f9bd5a6062dfb1c/63d1b0363f9bd5a6062dfb1c_Images/63d1b0363f9bd5a6062dfb1c_Image_16.jpeg,did not like,1.779333479,,,,,,,,,,,,,,
63d1b0363f9bd5a6062dfb1c,,,,,,,space,1.1537,NAN,,NAN,,0.0,81.0,81.0,81.0,1.0,82.0,Taylor,Rej,Participant_Images/63d1b0363f9bd5a6062dfb1c/63d1b0363f9bd5a6062dfb1c_Images/63d1b0363f9bd5a6062dfb1c_Image_22.jpeg,did not like,4.312468682,,,,,,,,,,,,,,
63d1b0363f9bd5a6062dfb1c,,,,,,,space,5.4697,NAN,,NAN,,0.0,82.0,82.0,82.0,1.0,83.0,Taylor,Rej,Participant_Images/63d1b0363f9bd5a6062dfb1c/63d1b0363f9bd5a6062dfb1c_Images/63d1b0363f9bd5a6062dfb1c_Image_21.jpeg,did not like,4.940433059,,,,,,,,,,,,,,
63d1b0363f9bd5a6062dfb1c,,,,,,,space,0.6785,NAN,,NAN,,0.0,83.0,83.0,83.0,1.0,84.0,Taylor,Rej,Participant_Images/63d1b0363f9bd5a6062dfb1c/63d1b0363f9bd5a6062dfb1c_Images/63d1b0363f9bd5a6062dfb1c_Image_29.jpeg,did not like,2.7105123,,,,,,,,,,,,,,
63d1b0363f9bd5a6062dfb1c,,,,,,,,,,,,,,,,,,,,,,,,s,1.0,space,1.2943,0.0,0.0,0.0,0.0,1.0,3.4962,h,0.3014,,
63d1b0363f9bd5a6062dfb1c,,,,,,,,,NAN,,NAN,,0.0,84.0,84.0,84.0,1.0,85.0,Taylor,Rej,Participant_Images/63d1b0363f9bd5a6062dfb1c/63d1b0363f9bd5a6062dfb1c_Images/63d1b0363f9bd5a6062dfb1c_Image_11.jpeg,did not like,3.602308302,,,,,,,,,,,,,,
63d1b0363f9bd5a6062dfb1c,,,,,,,space,1.2964,NAN,,NAN,,0.0,85.0,85.0,85.0,1.0,86.0,Taylor,Rej,Participant_Images/63d1b0363f9bd5a6062dfb1c/63d1b0363f9bd5a6062dfb1c_Images/63d1b0363f9bd5a6062dfb1c_Image_20.jpeg,did not like,4.106391878,,,,,,,,,,,,,,
63d1b0363f9bd5a6062dfb1c,,,,,,,space,1.9693,NAN,,NAN,,0.0,86.0,86.0,86.0,1.0,87.0,Taylor,Rej,Participant_Images/63d1b0363f9bd5a6062dfb1c/63d1b0363f9bd5a6062dfb1c_Images/63d1b0363f9bd5a6062dfb1c_Image_3.jpeg,did not like,3.799433026,,,,,,,,,,,,,,
63d1b0363f9bd5a6062dfb1c,,,,,,,space,1.5095,NAN,,NAN,,0.0,87.0,87.0,87.0,1.0,88.0,Taylor,Rej,Participant_Images/63d1b0363f9bd5a6062dfb1c/63d1b0363f9bd5a6062dfb1c_Images/63d1b0363f9bd5a6062dfb1c_Image_26.jpeg,did not like,5.246980764,,,,,,,,,,,,,,
63d1b0363f9bd5a6062dfb1c,,,,,,,space,0.4127,NAN,,NAN,,0.0,88.0,88.0,88.0,1.0,89.0,Taylor,Rej,Participant_Images/63d1b0363f9bd5a6062dfb1c/63d1b0363f9bd5a6062dfb1c_Images/63d1b0363f9bd5a6062dfb1c_Image_9.jpeg,did not like,3.30081769,,,,,,,,,,,,,,
63d1b0363f9bd5a6062dfb1c,,,,,,,,,,,,,,,,,,,,,,,,s,1.0,space,0.6786,0.0,0.0,0.0,0.0,1.0,0.838,h,0.1869,,
63d1b0363f9bd5a6062dfb1c,,,,,,,,,2,,7,,0.0,89.0,89.0,89.0,1.0,90.0,Taylor,Rej,Participant_Images/63d1b0363f9bd5a6062dfb1c/63d1b0363f9bd5a6062dfb1c_Images/63d1b0363f9bd5a6062dfb1c_Image_4.jpeg,liked,1.661473164,,,,,,,,,,,,,,
63d1b0363f9bd5a6062dfb1c,,,,,space,1.5343,space,0.875,NAN,,NAN,,0.0,90.0,90.0,90.0,1.0,91.0,Alex,Rej,Participant_Images/63d1b0363f9bd5a6062dfb1c/63d1b0363f9bd5a6062dfb1c_Images/63d1b0363f9bd5a6062dfb1c_Image_15.jpeg,did not like,3.613205605,,,,,,,,,,,,,,
63d1b0363f9bd5a6062dfb1c,,,,,,,space,0.5416,NAN,,NAN,,0.0,91.0,91.0,91.0,1.0,92.0,Alex,Rej,Participant_Images/63d1b0363f9bd5a6062dfb1c/63d1b0363f9bd5a6062dfb1c_Images/63d1b0363f9bd5a6062dfb1c_Image_11.jpeg,liked,4.988446431,,,,,,,,,,,,,,
63d1b0363f9bd5a6062dfb1c,,,,,,,space,0.4303,NAN,,NAN,,0.0,92.0,92.0,92.0,1.0,93.0,Alex,Rej,Participant_Images/63d1b0363f9bd5a6062dfb1c/63d1b0363f9bd5a6062dfb1c_Images/63d1b0363f9bd5a6062dfb1c_Image_23.jpeg,did not like,3.470791822,,,,,,,,,,,,,,
63d1b0363f9bd5a6062dfb1c,,,,,,,space,0.6259,NAN,,NAN,,0.0,93.0,93.0,93.0,1.0,94.0,Alex,Rej,Participant_Images/63d1b0363f9bd5a6062dfb1c/63d1b0363f9bd5a6062dfb1c_Images/63d1b0363f9bd5a6062dfb1c_Image_16.jpeg,did not like,3.820572462,,,,,,,,,,,,,,
63d1b0363f9bd5a6062dfb1c,,,,,,,,,,,,,,,,,,,,,,,,s,1.0,space,0.6257,0.0,0.0,0.0,0.0,1.0,0.9109,h,0.3396,,
63d1b0363f9bd5a6062dfb1c,,,,,,,,,NAN,,NAN,,0.0,94.0,94.0,94.0,1.0,95.0,Alex,Rej,Participant_Images/63d1b0363f9bd5a6062dfb1c/63d1b0363f9bd5a6062dfb1c_Images/63d1b0363f9bd5a6062dfb1c_Image_29.jpeg,liked,2.455989137,,,,,,,,,,,,,,
63d1b0363f9bd5a6062dfb1c,,,,,,,space,1.3217,NAN,,NAN,,0.0,95.0,95.0,95.0,1.0,96.0,Alex,Rej,Participant_Images/63d1b0363f9bd5a6062dfb1c/63d1b0363f9bd5a6062dfb1c_Images/63d1b0363f9bd5a6062dfb1c_Image_6.jpeg,liked,3.79605092,,,,,,,,,,,,,,
63d1b0363f9bd5a6062dfb1c,,,,,,,space,0.6377,NAN,,NAN,,0.0,96.0,96.0,96.0,1.0,97.0,Alex,Rej,Participant_Images/63d1b0363f9bd5a6062dfb1c/63d1b0363f9bd5a6062dfb1c_Images/63d1b0363f9bd5a6062dfb1c_Image_19.jpeg,did not like,3.562416326,,,,,,,,,,,,,,
63d1b0363f9bd5a6062dfb1c,,,,,,,space,0.7438,NAN,,NAN,,0.0,97.0,97.0,97.0,1.0,98.0,Alex,Rej,Participant_Images/63d1b0363f9bd5a6062dfb1c/63d1b0363f9bd5a6062dfb1c_Images/63d1b0363f9bd5a6062dfb1c_Image_8.jpeg,did not like,2.843822497,,,,,,,,,,,,,,
63d1b0363f9bd5a6062dfb1c,,,,,,,space,7.5842,NAN,,NAN,,0.0,98.0,98.0,98.0,1.0,99.0,Alex,Rej,Participant_Images/63d1b0363f9bd5a6062dfb1c/63d1b0363f9bd5a6062dfb1c_Images/63d1b0363f9bd5a6062dfb1c_Image_7.jpeg,did not like,3.546495948,,,,,,,,,,,,,,
63d1b0363f9bd5a6062dfb1c,,,,,,,,,,,,,,,,,,,,,,,,s,1.0,space,0.6502,0.0,0.0,0.0,0.0,1.0,1.5444,h,0.4052,,
63d1b0363f9bd5a6062dfb1c,,,,,,,,,NAN,,NAN,,0.0,99.0,99.0,99.0,1.0,100.0,Alex,Rej,Participant_Images/63d1b0363f9bd5a6062dfb1c/63d1b0363f9bd5a6062dfb1c_Images/63d1b0363f9bd5a6062dfb1c_Image_12.jpeg,did not like,1.672012706,,,,,,,,,,,,,,
63d1b0363f9bd5a6062dfb1c,,,,,,,space,0.6957,NAN,,NAN,,0.0,100.0,100.0,100.0,1.0,101.0,Alex,Rej,Participant_Images/63d1b0363f9bd5a6062dfb1c/63d1b0363f9bd5a6062dfb1c_Images/63d1b0363f9bd5a6062dfb1c_Image_21.jpeg,did not like,4.942172136,,,,,,,,,,,,,,
63d1b0363f9bd5a6062dfb1c,,,,,,,space,0.3615,NAN,,NAN,,0.0,101.0,101.0,101.0,1.0,102.0,Alex,Rej,Participant_Images/63d1b0363f9bd5a6062dfb1c/63d1b0363f9bd5a6062dfb1c_Images/63d1b0363f9bd5a6062dfb1c_Image_4.jpeg,did not like,2.50187214,,,,,,,,,,,,,,
63d1b0363f9bd5a6062dfb1c,,,,,,,space,0.8056,NAN,,NAN,,0.0,102.0,102.0,102.0,1.0,103.0,Alex,Rej,Participant_Images/63d1b0363f9bd5a6062dfb1c/63d1b0363f9bd5a6062dfb1c_Images/63d1b0363f9bd5a6062dfb1c_Image_3.jpeg,did not like,2.071164779,,,,,,,,,,,,,,
63d1b0363f9bd5a6062dfb1c,,,,,,,space,0.5535,NAN,,NAN,,0.0,103.0,103.0,103.0,1.0,104.0,Alex,Rej,Participant_Images/63d1b0363f9bd5a6062dfb1c/63d1b0363f9bd5a6062dfb1c_Images/63d1b0363f9bd5a6062dfb1c_Image_20.jpeg,did not like,5.336503566,,,,,,,,,,,,,,
63d1b0363f9bd5a6062dfb1c,,,,,,,,,,,,,,,,,,,,,,,,s,1.0,space,1.2874,0.0,0.0,0.0,0.0,1.0,1.2238,h,0.2637,,
63d1b0363f9bd5a6062dfb1c,,,,,,,,,NAN,,NAN,,0.0,104.0,104.0,104.0,1.0,105.0,Alex,Rej,Participant_Images/63d1b0363f9bd5a6062dfb1c/63d1b0363f9bd5a6062dfb1c_Images/63d1b0363f9bd5a6062dfb1c_Image_22.jpeg,did not like,2.642157193,,,,,,,,,,,,,,
63d1b0363f9bd5a6062dfb1c,,,,,,,space,0.9511,NAN,,NAN,,0.0,105.0,105.0,105.0,1.0,106.0,Alex,Rej,Participant_Images/63d1b0363f9bd5a6062dfb1c/63d1b0363f9bd5a6062dfb1c_Images/63d1b0363f9bd5a6062dfb1c_Image_26.jpeg,did not like,4.456234322,,,,,,,,,,,,,,
63d1b0363f9bd5a6062dfb1c,,,,,,,space,5.619,NAN,,NAN,,0.0,106.0,106.0,106.0,1.0,107.0,Alex,Rej,Participant_Images/63d1b0363f9bd5a6062dfb1c/63d1b0363f9bd5a6062dfb1c_Images/63d1b0363f9bd5a6062dfb1c_Image_17.jpeg,did not like,4.438512181,,,,,,,,,,,,,,
63d1b0363f9bd5a6062dfb1c,,,,,,,space,0.8221,NAN,,NAN,,0.0,107.0,107.0,107.0,1.0,108.0,Alex,Rej,Participant_Images/63d1b0363f9bd5a6062dfb1c/63d1b0363f9bd5a6062dfb1c_Images/63d1b0363f9bd5a6062dfb1c_Image_9.jpeg,liked,2.682944783,,,,,,,,,,,,,,
63d1b0363f9bd5a6062dfb1c,,,,,,,space,0.7112,NAN,,NAN,,0.0,108.0,108.0,108.0,1.0,109.0,Alex,Rej,Participant_Images/63d1b0363f9bd5a6062dfb1c/63d1b0363f9bd5a6062dfb1c_Images/63d1b0363f9bd5a6062dfb1c_Image_24.jpeg,did not like,4.51984296,,,,,,,,,,,,,,
63d1b0363f9bd5a6062dfb1c,,,,,,,,,,,,,,,,,,,,,,,,s,1.0,space,4.0652,0.0,0.0,0.0,0.0,1.0,0.93,h,0.3795,,
63d1b0363f9bd5a6062dfb1c,,,,,,,,,NAN,,NAN,,0.0,109.0,109.0,109.0,1.0,110.0,Alex,Rej,Participant_Images/63d1b0363f9bd5a6062dfb1c/63d1b0363f9bd5a6062dfb1c_Images/63d1b0363f9bd5a6062dfb1c_Image_13.jpeg,did not like,3.195382774,,,,,,,,,,,,,,
63d1b0363f9bd5a6062dfb1c,,,,,,,space,0.6323,NAN,,NAN,,0.0,110.0,110.0,110.0,1.0,111.0,Alex,Rej,Participant_Images/63d1b0363f9bd5a6062dfb1c/63d1b0363f9bd5a6062dfb1c_Images/63d1b0363f9bd5a6062dfb1c_Image_2.jpeg,liked,1.779333479,,,,,,,,,,,,,,
63d1b0363f9bd5a6062dfb1c,,,,,,,space,0.4331,NAN,,NAN,,0.0,111.0,111.0,111.0,1.0,112.0,Alex,Rej,Participant_Images/63d1b0363f9bd5a6062dfb1c/63d1b0363f9bd5a6062dfb1c_Images/63d1b0363f9bd5a6062dfb1c_Image_14.jpeg,liked,4.312468682,,,,,,,,,,,,,,
63d1b0363f9bd5a6062dfb1c,,,,,,,space,0.4831,NAN,,NAN,,0.0,112.0,112.0,112.0,1.0,113.0,Alex,Rej,Participant_Images/63d1b0363f9bd5a6062dfb1c/63d1b0363f9bd5a6062dfb1c_Images/63d1b0363f9bd5a6062dfb1c_Image_10.jpeg,did not like,4.940433059,,,,,,,,,,,,,,
63d1b0363f9bd5a6062dfb1c,,,,,,,space,0.7365,NAN,,NAN,,0.0,113.0,113.0,113.0,1.0,114.0,Alex,Rej,Participant_Images/63d1b0363f9bd5a6062dfb1c/63d1b0363f9bd5a6062dfb1c_Images/63d1b0363f9bd5a6062dfb1c_Image_27.jpeg,did not like,2.7105123,,,,,,,,,,,,,,
63d1b0363f9bd5a6062dfb1c,,,,,,,,,,,,,,,,,,,,,,,,s,1.0,space,0.6499,0.0,0.0,0.0,0.0,1.0,0.8767,h,1.9834,,
63d1b0363f9bd5a6062dfb1c,,,,,,,,,NAN,,NAN,,0.0,114.0,114.0,114.0,1.0,115.0,Alex,Rej,Participant_Images/63d1b0363f9bd5a6062dfb1c/63d1b0363f9bd5a6062dfb1c_Images/63d1b0363f9bd5a6062dfb1c_Image_28.jpeg,liked,3.602308302,,,,,,,,,,,,,,
63d1b0363f9bd5a6062dfb1c,,,,,,,space,0.9805,NAN,,NAN,,0.0,115.0,115.0,115.0,1.0,116.0,Alex,Rej,Participant_Images/63d1b0363f9bd5a6062dfb1c/63d1b0363f9bd5a6062dfb1c_Images/63d1b0363f9bd5a6062dfb1c_Image_30.jpeg,did not like,4.106391878,,,,,,,,,,,,,,
63d1b0363f9bd5a6062dfb1c,,,,,,,space,1.0349,NAN,,NAN,,0.0,116.0,116.0,116.0,1.0,117.0,Alex,Rej,Participant_Images/63d1b0363f9bd5a6062dfb1c/63d1b0363f9bd5a6062dfb1c_Images/63d1b0363f9bd5a6062dfb1c_Image_25.jpeg,did not like,3.799433026,,,,,,,,,,,,,,
63d1b0363f9bd5a6062dfb1c,,,,,,,space,0.7408,NAN,,NAN,,0.0,117.0,117.0,117.0,1.0,118.0,Alex,Rej,Participant_Images/63d1b0363f9bd5a6062dfb1c/63d1b0363f9bd5a6062dfb1c_Images/63d1b0363f9bd5a6062dfb1c_Image_1.jpeg,liked,5.246980764,,,,,,,,,,,,,,
63d1b0363f9bd5a6062dfb1c,,,,,,,space,0.477,NAN,,NAN,,0.0,118.0,118.0,118.0,1.0,119.0,Alex,Rej,Participant_Images/63d1b0363f9bd5a6062dfb1c/63d1b0363f9bd5a6062dfb1c_Images/63d1b0363f9bd5a6062dfb1c_Image_18.jpeg,did not like,3.30081769,,,,,,,,,,,,,,
63d1b0363f9bd5a6062dfb1c,,,,,,,,,,,,,,,,,,,,,,,,s,1.0,space,0.4445,0.0,0.0,0.0,0.0,1.0,0.7726,h,0.1884,,
63d1b0363f9bd5a6062dfb1c,,,,,,,,,2,,7,,0.0,119.0,119.0,119.0,1.0,120.0,Alex,Rej,Participant_Images/63d1b0363f9bd5a6062dfb1c/63d1b0363f9bd5a6062dfb1c_Images/63d1b0363f9bd5a6062dfb1c_Image_5.jpeg,liked,1.661473164,,,,,,,,,,,,,,
63d1b0363f9bd5a6062dfb1c,,,,,space,1.8068,space,7.9784,NAN,,NAN,,0.0,120.0,120.0,120.0,1.0,121.0,Riley,Acc,Participant_Images/63d1b0363f9bd5a6062dfb1c/63d1b0363f9bd5a6062dfb1c_Images/63d1b0363f9bd5a6062dfb1c_Image_20.jpeg,liked,3.613205605,,,,,,,,,,,,,,
63d1b0363f9bd5a6062dfb1c,,,,,,,space,1.2856,NAN,,NAN,,0.0,121.0,121.0,121.0,1.0,122.0,Riley,Acc,Participant_Images/63d1b0363f9bd5a6062dfb1c/63d1b0363f9bd5a6062dfb1c_Images/63d1b0363f9bd5a6062dfb1c_Image_18.jpeg,did not like,4.988446431,,,,,,,,,,,,,,
63d1b0363f9bd5a6062dfb1c,,,,,,,space,0.4562,NAN,,NAN,,0.0,122.0,122.0,122.0,1.0,123.0,Riley,Acc,Participant_Images/63d1b0363f9bd5a6062dfb1c/63d1b0363f9bd5a6062dfb1c_Images/63d1b0363f9bd5a6062dfb1c_Image_19.jpeg,did not like,3.470791822,,,,,,,,,,,,,,
63d1b0363f9bd5a6062dfb1c,,,,,,,space,0.5059,NAN,,NAN,,0.0,123.0,123.0,123.0,1.0,124.0,Riley,Acc,Participant_Images/63d1b0363f9bd5a6062dfb1c/63d1b0363f9bd5a6062dfb1c_Images/63d1b0363f9bd5a6062dfb1c_Image_28.jpeg,liked,3.820572462,,,,,,,,,,,,,,
63d1b0363f9bd5a6062dfb1c,,,,,,,,,,,,,,,,,,,,,,,,s,1.0,space,1.0324,0.0,0.0,0.0,0.0,1.0,1.0879,h,0.4096,,
63d1b0363f9bd5a6062dfb1c,,,,,,,,,NAN,,NAN,,0.0,124.0,124.0,124.0,1.0,125.0,Riley,Acc,Participant_Images/63d1b0363f9bd5a6062dfb1c/63d1b0363f9bd5a6062dfb1c_Images/63d1b0363f9bd5a6062dfb1c_Image_4.jpeg,liked,2.455989137,,,,,,,,,,,,,,
63d1b0363f9bd5a6062dfb1c,,,,,,,space,2.767,NAN,,NAN,,0.0,125.0,125.0,125.0,1.0,126.0,Riley,Acc,Participant_Images/63d1b0363f9bd5a6062dfb1c/63d1b0363f9bd5a6062dfb1c_Images/63d1b0363f9bd5a6062dfb1c_Image_12.jpeg,liked,3.79605092,,,,,,,,,,,,,,
63d1b0363f9bd5a6062dfb1c,,,,,,,space,1.8057,NAN,,NAN,,0.0,126.0,126.0,126.0,1.0,127.0,Riley,Acc,Participant_Images/63d1b0363f9bd5a6062dfb1c/63d1b0363f9bd5a6062dfb1c_Images/63d1b0363f9bd5a6062dfb1c_Image_13.jpeg,liked,3.562416326,,,,,,,,,,,,,,
63d1b0363f9bd5a6062dfb1c,,,,,,,space,7.7107,NAN,,NAN,,0.0,127.0,127.0,127.0,1.0,128.0,Riley,Acc,Participant_Images/63d1b0363f9bd5a6062dfb1c/63d1b0363f9bd5a6062dfb1c_Images/63d1b0363f9bd5a6062dfb1c_Image_8.jpeg,liked,2.843822497,,,,,,,,,,,,,,
63d1b0363f9bd5a6062dfb1c,,,,,,,space,7.3942,NAN,,NAN,,0.0,128.0,128.0,128.0,1.0,129.0,Riley,Acc,Participant_Images/63d1b0363f9bd5a6062dfb1c/63d1b0363f9bd5a6062dfb1c_Images/63d1b0363f9bd5a6062dfb1c_Image_17.jpeg,did not like,3.546495948,,,,,,,,,,,,,,
63d1b0363f9bd5a6062dfb1c,,,,,,,,,,,,,,,,,,,,,,,,s,1.0,space,2.0395,0.0,0.0,0.0,0.0,1.0,1.312,h,0.1649,,
63d1b0363f9bd5a6062dfb1c,,,,,,,,,NAN,,NAN,,0.0,129.0,129.0,129.0,1.0,130.0,Riley,Acc,Participant_Images/63d1b0363f9bd5a6062dfb1c/63d1b0363f9bd5a6062dfb1c_Images/63d1b0363f9bd5a6062dfb1c_Image_22.jpeg,liked,1.672012706,,,,,,,,,,,,,,
63d1b0363f9bd5a6062dfb1c,,,,,,,space,2.4159,NAN,,NAN,,0.0,130.0,130.0,130.0,1.0,131.0,Riley,Acc,Participant_Images/63d1b0363f9bd5a6062dfb1c/63d1b0363f9bd5a6062dfb1c_Images/63d1b0363f9bd5a6062dfb1c_Image_30.jpeg,liked,4.942172136,,,,,,,,,,,,,,
63d1b0363f9bd5a6062dfb1c,,,,,,,space,0.8594,NAN,,NAN,,0.0,131.0,131.0,131.0,1.0,132.0,Riley,Acc,Participant_Images/63d1b0363f9bd5a6062dfb1c/63d1b0363f9bd5a6062dfb1c_Images/63d1b0363f9bd5a6062dfb1c_Image_5.jpeg,liked,2.50187214,,,,,,,,,,,,,,
63d1b0363f9bd5a6062dfb1c,,,,,,,space,3.5579,NAN,,NAN,,0.0,132.0,132.0,132.0,1.0,133.0,Riley,Acc,Participant_Images/63d1b0363f9bd5a6062dfb1c/63d1b0363f9bd5a6062dfb1c_Images/63d1b0363f9bd5a6062dfb1c_Image_29.jpeg,did not like,2.071164779,,,,,,,,,,,,,,
63d1b0363f9bd5a6062dfb1c,,,,,,,space,0.9973,NAN,,NAN,,0.0,133.0,133.0,133.0,1.0,134.0,Riley,Acc,Participant_Images/63d1b0363f9bd5a6062dfb1c/63d1b0363f9bd5a6062dfb1c_Images/63d1b0363f9bd5a6062dfb1c_Image_15.jpeg,liked,5.336503566,,,,,,,,,,,,,,
63d1b0363f9bd5a6062dfb1c,,,,,,,,,,,,,,,,,,,,,,,,,999.0,space,6.3097,0.0,0.0,0.0,0.0,1.0,,,,,
63d1b0363f9bd5a6062dfb1c,,,,,,,,,NAN,,NAN,,0.0,134.0,134.0,134.0,1.0,135.0,Riley,Acc,Participant_Images/63d1b0363f9bd5a6062dfb1c/63d1b0363f9bd5a6062dfb1c_Images/63d1b0363f9bd5a6062dfb1c_Image_6.jpeg,liked,2.642157193,,,,,,,,,,,,,,
63d1b0363f9bd5a6062dfb1c,,,,,,,space,0.4123,NAN,,NAN,,0.0,135.0,135.0,135.0,1.0,136.0,Riley,Acc,Participant_Images/63d1b0363f9bd5a6062dfb1c/63d1b0363f9bd5a6062dfb1c_Images/63d1b0363f9bd5a6062dfb1c_Image_23.jpeg,liked,4.456234322,,,,,,,,,,,,,,
63d1b0363f9bd5a6062dfb1c,,,,,,,space,0.5529,NAN,,NAN,,0.0,136.0,136.0,136.0,1.0,137.0,Riley,Acc,Participant_Images/63d1b0363f9bd5a6062dfb1c/63d1b0363f9bd5a6062dfb1c_Images/63d1b0363f9bd5a6062dfb1c_Image_24.jpeg,did not like,4.438512181,,,,,,,,,,,,,,
63d1b0363f9bd5a6062dfb1c,,,,,,,space,0.6665,NAN,,NAN,,0.0,137.0,137.0,137.0,1.0,138.0,Riley,Acc,Participant_Images/63d1b0363f9bd5a6062dfb1c/63d1b0363f9bd5a6062dfb1c_Images/63d1b0363f9bd5a6062dfb1c_Image_2.jpeg,liked,2.682944783,,,,,,,,,,,,,,
63d1b0363f9bd5a6062dfb1c,,,,,,,space,0.9765,NAN,,NAN,,0.0,138.0,138.0,138.0,1.0,139.0,Riley,Acc,Participant_Images/63d1b0363f9bd5a6062dfb1c/63d1b0363f9bd5a6062dfb1c_Images/63d1b0363f9bd5a6062dfb1c_Image_3.jpeg,did not like,4.51984296,,,,,,,,,,,,,,
63d1b0363f9bd5a6062dfb1c,,,,,,,,,,,,,,,,,,,,,,,,s,1.0,space,0.6509,0.0,0.0,0.0,0.0,1.0,0.9593,h,0.378,,
63d1b0363f9bd5a6062dfb1c,,,,,,,,,NAN,,NAN,,0.0,139.0,139.0,139.0,1.0,140.0,Riley,Acc,Participant_Images/63d1b0363f9bd5a6062dfb1c/63d1b0363f9bd5a6062dfb1c_Images/63d1b0363f9bd5a6062dfb1c_Image_1.jpeg,did not like,3.195382774,,,,,,,,,,,,,,
63d1b0363f9bd5a6062dfb1c,,,,,,,space,0.6041,NAN,,NAN,,0.0,140.0,140.0,140.0,1.0,141.0,Riley,Acc,Participant_Images/63d1b0363f9bd5a6062dfb1c/63d1b0363f9bd5a6062dfb1c_Images/63d1b0363f9bd5a6062dfb1c_Image_21.jpeg,liked,1.779333479,,,,,,,,,,,,,,
63d1b0363f9bd5a6062dfb1c,,,,,,,space,0.5023,NAN,,NAN,,0.0,141.0,141.0,141.0,1.0,142.0,Riley,Acc,Participant_Images/63d1b0363f9bd5a6062dfb1c/63d1b0363f9bd5a6062dfb1c_Images/63d1b0363f9bd5a6062dfb1c_Image_27.jpeg,liked,4.312468682,,,,,,,,,,,,,,
63d1b0363f9bd5a6062dfb1c,,,,,,,space,0.5708,NAN,,NAN,,0.0,142.0,142.0,142.0,1.0,143.0,Riley,Acc,Participant_Images/63d1b0363f9bd5a6062dfb1c/63d1b0363f9bd5a6062dfb1c_Images/63d1b0363f9bd5a6062dfb1c_Image_10.jpeg,did not like,4.940433059,,,,,,,,,,,,,,
63d1b0363f9bd5a6062dfb1c,,,,,,,space,0.4984,NAN,,NAN,,0.0,143.0,143.0,143.0,1.0,144.0,Riley,Acc,Participant_Images/63d1b0363f9bd5a6062dfb1c/63d1b0363f9bd5a6062dfb1c_Images/63d1b0363f9bd5a6062dfb1c_Image_25.jpeg,liked,2.7105123,,,,,,,,,,,,,,
63d1b0363f9bd5a6062dfb1c,,,,,,,,,,,,,,,,,,,,,,,,s,1.0,space,1.1359,0.0,0.0,0.0,0.0,1.0,2.0002,h,0.2722,,
63d1b0363f9bd5a6062dfb1c,,,,,,,,,NAN,,NAN,,0.0,144.0,144.0,144.0,1.0,145.0,Riley,Acc,Participant_Images/63d1b0363f9bd5a6062dfb1c/63d1b0363f9bd5a6062dfb1c_Images/63d1b0363f9bd5a6062dfb1c_Image_26.jpeg,liked,3.602308302,,,,,,,,,,,,,,
63d1b0363f9bd5a6062dfb1c,,,,,,,space,0.6819,NAN,,NAN,,0.0,145.0,145.0,145.0,1.0,146.0,Riley,Acc,Participant_Images/63d1b0363f9bd5a6062dfb1c/63d1b0363f9bd5a6062dfb1c_Images/63d1b0363f9bd5a6062dfb1c_Image_9.jpeg,liked,4.106391878,,,,,,,,,,,,,,
63d1b0363f9bd5a6062dfb1c,,,,,,,space,1.6979,NAN,,NAN,,0.0,146.0,146.0,146.0,1.0,147.0,Riley,Acc,Participant_Images/63d1b0363f9bd5a6062dfb1c/63d1b0363f9bd5a6062dfb1c_Images/63d1b0363f9bd5a6062dfb1c_Image_7.jpeg,liked,3.799433026,,,,,,,,,,,,,,
63d1b0363f9bd5a6062dfb1c,,,,,,,space,0.3685,NAN,,NAN,,0.0,147.0,147.0,147.0,1.0,148.0,Riley,Acc,Participant_Images/63d1b0363f9bd5a6062dfb1c/63d1b0363f9bd5a6062dfb1c_Images/63d1b0363f9bd5a6062dfb1c_Image_16.jpeg,liked,5.246980764,,,,,,,,,,,,,,
63d1b0363f9bd5a6062dfb1c,,,,,,,space,0.6094,NAN,,NAN,,0.0,148.0,148.0,148.0,1.0,149.0,Riley,Acc,Participant_Images/63d1b0363f9bd5a6062dfb1c/63d1b0363f9bd5a6062dfb1c_Images/63d1b0363f9bd5a6062dfb1c_Image_11.jpeg,liked,3.30081769,,,,,,,,,,,,,,
63d1b0363f9bd5a6062dfb1c,,,,,,,,,,,,,,,,,,,,,,,,s,1.0,space,5.0738,0.0,0.0,0.0,0.0,1.0,0.481,h,1.4207,,
63d1b0363f9bd5a6062dfb1c,,,,,,,,,3,,5,,0.0,149.0,149.0,149.0,1.0,150.0,Riley,Acc,Participant_Images/63d1b0363f9bd5a6062dfb1c/63d1b0363f9bd5a6062dfb1c_Images/63d1b0363f9bd5a6062dfb1c_Image_14.jpeg,did not like,1.661473164,,,,,,,,,,,,,,
63d1b0363f9bd5a6062dfb1c,,,,,,,,,,,,,,,,,,,,,,,,,,,,,,,,,,,,space,3.9501
