endwelcomescreen_keys.keys,endwelcomescreen_keys.rt,endinstructionscreen_keys.keys,endinstructionscreen_keys.rt,endpartnermatch_keys.keys,endpartnermatch_keys.rt,sharenextphoto_key.keys,sharenextphoto_key.rt,salience_rating,key_resp.keys,stress_level,stresslevel_keypress.keys,entiretaskloop.thisRepN,entiretaskloop.thisTrialN,entiretaskloop.thisN,entiretaskloop.thisIndex,entiretaskloop.ran,TrialNumber,Partner,Condition,Photos,Feedback,FeedbackWait,choice_keys.keys,playlottery,resumeafterlottery_keys.keys,resumeafterlottery_keys.rt,lotteryloop.thisRepN,lotteryloop.thisTrialN,lotteryloop.thisN,lotteryloop.thisIndex,lotteryloop.ran,choice_keys.rt,lotteryguess_keys.keys,lotteryguess_keys.rt,end_screen_keys.keys,end_screen_keys.rt
space,7.7062,,,,,,,,,,,,,,,,,,,,,,,,,,,,,,,,,,,
,,,,,,,,,,,,,,,,,,,,,,,,,,,,,,,,,,,,
,,space,58.369,,,,,,,,,,,,,,,,,,,,,,,,,,,,,,,,,
,,,,space,3.6546,space,1.2927,NAN,,NAN,,0,0,0,0,1,1,Sam,Neutral,Participant_Images/63d1b0363f9bd5a6062dfb1c/63d1b0363f9bd5a6062dfb1c_Images/63d1b0363f9bd5a6062dfb1c_Image_2.jpeg,did not like,3.613205605,,,,,,,,,,,,,,
,,,,,,space,1.1436,NAN,,NAN,,0,1,1,1,1,2,Sam,Neutral,Participant_Images/63d1b0363f9bd5a6062dfb1c/63d1b0363f9bd5a6062dfb1c_Images/63d1b0363f9bd5a6062dfb1c_Image_20.jpeg,did not like,4.988446431,,,,,,,,,,,,,,
,,,,,,space,1.3857,NAN,,NAN,,0,2,2,2,1,3,Sam,Neutral,Participant_Images/63d1b0363f9bd5a6062dfb1c/63d1b0363f9bd5a6062dfb1c_Images/63d1b0363f9bd5a6062dfb1c_Image_11.jpeg,did not like,3.470791822,,,,,,,,,,,,,,
,,,,,,space,6.9124,NAN,,NAN,,0,3,3,3,1,4,Sam,Neutral,Participant_Images/63d1b0363f9bd5a6062dfb1c/63d1b0363f9bd5a6062dfb1c_Images/63d1b0363f9bd5a6062dfb1c_Image_25.jpeg,did not like,3.820572462,,,,,,,,,,,,,,
,,,,,,,,,,,,,,,,,,,,,,,,999,space,3.889,0,0,0,0,1,,,,,
,,,,,,,,NAN,,NAN,,0,4,4,4,1,5,Sam,Neutral,Participant_Images/63d1b0363f9bd5a6062dfb1c/63d1b0363f9bd5a6062dfb1c_Images/63d1b0363f9bd5a6062dfb1c_Image_12.jpeg,liked,2.455989137,,,,,,,,,,,,,,
,,,,,,space,0.7703,NAN,,NAN,,0,5,5,5,1,6,Sam,Neutral,Participant_Images/63d1b0363f9bd5a6062dfb1c/63d1b0363f9bd5a6062dfb1c_Images/63d1b0363f9bd5a6062dfb1c_Image_3.jpeg,did not like,3.79605092,,,,,,,,,,,,,,
,,,,,,space,0.7762,NAN,,NAN,,0,6,6,6,1,7,Sam,Neutral,Participant_Images/63d1b0363f9bd5a6062dfb1c/63d1b0363f9bd5a6062dfb1c_Images/63d1b0363f9bd5a6062dfb1c_Image_8.jpeg,did not like,3.562416326,,,,,,,,,,,,,,
,,,,,,space,1.2874,NAN,,NAN,,0,7,7,7,1,8,Sam,Neutral,Participant_Images/63d1b0363f9bd5a6062dfb1c/63d1b0363f9bd5a6062dfb1c_Images/63d1b0363f9bd5a6062dfb1c_Image_30.jpeg,liked,2.843822497,,,,,,,,,,,,,,
,,,,,,space,0.3802,NAN,,NAN,,0,8,8,8,1,9,Sam,Neutral,Participant_Images/63d1b0363f9bd5a6062dfb1c/63d1b0363f9bd5a6062dfb1c_Images/63d1b0363f9bd5a6062dfb1c_Image_15.jpeg,did not like,3.546495948,,,,,,,,,,,,,,
,,,,,,,,,,,,,,,,,,,,,,,s,1,space,1.2323,0,0,0,0,1,1.5893,,,,
,,,,,,,,NAN,,NAN,,0,9,9,9,1,10,Sam,Neutral,Participant_Images/63d1b0363f9bd5a6062dfb1c/63d1b0363f9bd5a6062dfb1c_Images/63d1b0363f9bd5a6062dfb1c_Image_13.jpeg,liked,1.672012706,,,,,,,,,,,,,,
,,,,,,space,1.1934,NAN,,NAN,,0,10,10,10,1,11,Sam,Neutral,Participant_Images/63d1b0363f9bd5a6062dfb1c/63d1b0363f9bd5a6062dfb1c_Images/63d1b0363f9bd5a6062dfb1c_Image_10.jpeg,liked,4.942172136,,,,,,,,,,,,,,
,,,,,,space,0.5932,NAN,,NAN,,0,11,11,11,1,12,Sam,Neutral,Participant_Images/63d1b0363f9bd5a6062dfb1c/63d1b0363f9bd5a6062dfb1c_Images/63d1b0363f9bd5a6062dfb1c_Image_19.jpeg,liked,2.50187214,,,,,,,,,,,,,,
,,,,,,space,0.5638,NAN,,NAN,,0,12,12,12,1,13,Sam,Neutral,Participant_Images/63d1b0363f9bd5a6062dfb1c/63d1b0363f9bd5a6062dfb1c_Images/63d1b0363f9bd5a6062dfb1c_Image_7.jpeg,did not like,2.071164779,,,,,,,,,,,,,,
,,,,,,space,0.4027,NAN,,NAN,,0,13,13,13,1,14,Sam,Neutral,Participant_Images/63d1b0363f9bd5a6062dfb1c/63d1b0363f9bd5a6062dfb1c_Images/63d1b0363f9bd5a6062dfb1c_Image_16.jpeg,did not like,5.336503566,,,,,,,,,,,,,,
,,,,,,,,,,,,,,,,,,,,,,,s,1,space,1.0273,0,0,0,0,1,3.096,h,1.4946,,
,,,,,,,,NAN,,NAN,,0,14,14,14,1,15,Sam,Neutral,Participant_Images/63d1b0363f9bd5a6062dfb1c/63d1b0363f9bd5a6062dfb1c_Images/63d1b0363f9bd5a6062dfb1c_Image_28.jpeg,liked,2.642157193,,,,,,,,,,,,,,
,,,,,,space,0.5513,NAN,,NAN,,0,15,15,15,1,16,Sam,Neutral,Participant_Images/63d1b0363f9bd5a6062dfb1c/63d1b0363f9bd5a6062dfb1c_Images/63d1b0363f9bd5a6062dfb1c_Image_4.jpeg,did not like,4.456234322,,,,,,,,,,,,,,
,,,,,,space,0.5582,NAN,,NAN,,0,16,16,16,1,17,Sam,Neutral,Participant_Images/63d1b0363f9bd5a6062dfb1c/63d1b0363f9bd5a6062dfb1c_Images/63d1b0363f9bd5a6062dfb1c_Image_18.jpeg,liked,4.438512181,,,,,,,,,,,,,,
,,,,,,space,0.7817,NAN,,NAN,,0,17,17,17,1,18,Sam,Neutral,Participant_Images/63d1b0363f9bd5a6062dfb1c/63d1b0363f9bd5a6062dfb1c_Images/63d1b0363f9bd5a6062dfb1c_Image_1.jpeg,liked,2.682944783,,,,,,,,,,,,,,
,,,,,,space,0.4345,NAN,,NAN,,0,18,18,18,1,19,Sam,Neutral,Participant_Images/63d1b0363f9bd5a6062dfb1c/63d1b0363f9bd5a6062dfb1c_Images/63d1b0363f9bd5a6062dfb1c_Image_24.jpeg,did not like,4.51984296,,,,,,,,,,,,,,
,,,,,,,,,,,,,,,,,,,,,,,,999,space,1.1335,0,0,0,0,1,,,,,
,,,,,,,,NAN,,NAN,,0,19,19,19,1,20,Sam,Neutral,Participant_Images/63d1b0363f9bd5a6062dfb1c/63d1b0363f9bd5a6062dfb1c_Images/63d1b0363f9bd5a6062dfb1c_Image_22.jpeg,liked,3.195382774,,,,,,,,,,,,,,
,,,,,,space,0.4782,NAN,,NAN,,0,20,20,20,1,21,Sam,Neutral,Participant_Images/63d1b0363f9bd5a6062dfb1c/63d1b0363f9bd5a6062dfb1c_Images/63d1b0363f9bd5a6062dfb1c_Image_26.jpeg,did not like,1.779333479,,,,,,,,,,,,,,
,,,,,,space,1.076,NAN,,NAN,,0,21,21,21,1,22,Sam,Neutral,Participant_Images/63d1b0363f9bd5a6062dfb1c/63d1b0363f9bd5a6062dfb1c_Images/63d1b0363f9bd5a6062dfb1c_Image_23.jpeg,did not like,4.312468682,,,,,,,,,,,,,,
,,,,,,space,0.3856,NAN,,NAN,,0,22,22,22,1,23,Sam,Neutral,Participant_Images/63d1b0363f9bd5a6062dfb1c/63d1b0363f9bd5a6062dfb1c_Images/63d1b0363f9bd5a6062dfb1c_Image_6.jpeg,liked,4.940433059,,,,,,,,,,,,,,
,,,,,,space,2.2184,NAN,,NAN,,0,23,23,23,1,24,Sam,Neutral,Participant_Images/63d1b0363f9bd5a6062dfb1c/63d1b0363f9bd5a6062dfb1c_Images/63d1b0363f9bd5a6062dfb1c_Image_14.jpeg,liked,2.7105123,,,,,,,,,,,,,,
,,,,,,,,,,,,,,,,,,,,,,,c,0,space,0.6403,0,0,0,0,1,3.3341,,,,
,,,,,,,,NAN,,NAN,,0,24,24,24,1,25,Sam,Neutral,Participant_Images/63d1b0363f9bd5a6062dfb1c/63d1b0363f9bd5a6062dfb1c_Images/63d1b0363f9bd5a6062dfb1c_Image_29.jpeg,liked,3.602308302,,,,,,,,,,,,,,
,,,,,,space,0.9433,NAN,,NAN,,0,25,25,25,1,26,Sam,Neutral,Participant_Images/63d1b0363f9bd5a6062dfb1c/63d1b0363f9bd5a6062dfb1c_Images/63d1b0363f9bd5a6062dfb1c_Image_21.jpeg,liked,4.106391878,,,,,,,,,,,,,,
,,,,,,space,0.3959,NAN,,NAN,,0,26,26,26,1,27,Sam,Neutral,Participant_Images/63d1b0363f9bd5a6062dfb1c/63d1b0363f9bd5a6062dfb1c_Images/63d1b0363f9bd5a6062dfb1c_Image_17.jpeg,liked,3.799433026,,,,,,,,,,,,,,
,,,,,,space,0.4513,NAN,,NAN,,0,27,27,27,1,28,Sam,Neutral,Participant_Images/63d1b0363f9bd5a6062dfb1c/63d1b0363f9bd5a6062dfb1c_Images/63d1b0363f9bd5a6062dfb1c_Image_5.jpeg,liked,5.246980764,,,,,,,,,,,,,,
,,,,,,space,0.7399,NAN,,NAN,,0,28,28,28,1,29,Sam,Neutral,Participant_Images/63d1b0363f9bd5a6062dfb1c/63d1b0363f9bd5a6062dfb1c_Images/63d1b0363f9bd5a6062dfb1c_Image_9.jpeg,did not like,3.30081769,,,,,,,,,,,,,,
,,,,,,,,,,,,,,,,,,,,,,,c,0,space,0.8902,0,0,0,0,1,3.2542,,,,
,,,,,,,,2,,6,,0,29,29,29,1,30,Sam,Neutral,Participant_Images/63d1b0363f9bd5a6062dfb1c/63d1b0363f9bd5a6062dfb1c_Images/63d1b0363f9bd5a6062dfb1c_Image_27.jpeg,did not like,1.661473164,,,,,,,,,,,,,,
,,,,space,2.1084,space,0.3675,NAN,,NAN,,0,30,30,30,1,31,Charlie,Acc,Participant_Images/63d1b0363f9bd5a6062dfb1c/63d1b0363f9bd5a6062dfb1c_Images/63d1b0363f9bd5a6062dfb1c_Image_3.jpeg,liked,3.613205605,,,,,,,,,,,,,,
,,,,,,space,0.2836,NAN,,NAN,,0,31,31,31,1,32,Charlie,Acc,Participant_Images/63d1b0363f9bd5a6062dfb1c/63d1b0363f9bd5a6062dfb1c_Images/63d1b0363f9bd5a6062dfb1c_Image_29.jpeg,did not like,4.988446431,,,,,,,,,,,,,,
,,,,,,space,0.4315,NAN,,NAN,,0,32,32,32,1,33,Charlie,Acc,Participant_Images/63d1b0363f9bd5a6062dfb1c/63d1b0363f9bd5a6062dfb1c_Images/63d1b0363f9bd5a6062dfb1c_Image_26.jpeg,liked,3.470791822,,,,,,,,,,,,,,
,,,,,,space,0.6164,NAN,,NAN,,0,33,33,33,1,34,Charlie,Acc,Participant_Images/63d1b0363f9bd5a6062dfb1c/63d1b0363f9bd5a6062dfb1c_Images/63d1b0363f9bd5a6062dfb1c_Image_13.jpeg,liked,3.820572462,,,,,,,,,,,,,,
,,,,,,,,,,,,,,,,,,,,,,,c,0,space,1.1898,0,0,0,0,1,1.8054,,,,
,,,,,,,,NAN,,NAN,,0,34,34,34,1,35,Charlie,Acc,Participant_Images/63d1b0363f9bd5a6062dfb1c/63d1b0363f9bd5a6062dfb1c_Images/63d1b0363f9bd5a6062dfb1c_Image_4.jpeg,did not like,2.455989137,,,,,,,,,,,,,,
,,,,,,space,1.0752,NAN,,NAN,,0,35,35,35,1,36,Charlie,Acc,Participant_Images/63d1b0363f9bd5a6062dfb1c/63d1b0363f9bd5a6062dfb1c_Images/63d1b0363f9bd5a6062dfb1c_Image_7.jpeg,liked,3.79605092,,,,,,,,,,,,,,
,,,,,,space,0.7338,NAN,,NAN,,0,36,36,36,1,37,Charlie,Acc,Participant_Images/63d1b0363f9bd5a6062dfb1c/63d1b0363f9bd5a6062dfb1c_Images/63d1b0363f9bd5a6062dfb1c_Image_18.jpeg,did not like,3.562416326,,,,,,,,,,,,,,
,,,,,,space,0.3774,NAN,,NAN,,0,37,37,37,1,38,Charlie,Acc,Participant_Images/63d1b0363f9bd5a6062dfb1c/63d1b0363f9bd5a6062dfb1c_Images/63d1b0363f9bd5a6062dfb1c_Image_16.jpeg,did not like,2.843822497,,,,,,,,,,,,,,
,,,,,,space,1.3389,NAN,,NAN,,0,38,38,38,1,39,Charlie,Acc,Participant_Images/63d1b0363f9bd5a6062dfb1c/63d1b0363f9bd5a6062dfb1c_Images/63d1b0363f9bd5a6062dfb1c_Image_2.jpeg,liked,3.546495948,,,,,,,,,,,,,,
,,,,,,,,,,,,,,,,,,,,,,,s,1,space,0.8697,0,0,0,0,1,2.8804,,,,
,,,,,,,,NAN,,NAN,,0,39,39,39,1,40,Charlie,Acc,Participant_Images/63d1b0363f9bd5a6062dfb1c/63d1b0363f9bd5a6062dfb1c_Images/63d1b0363f9bd5a6062dfb1c_Image_19.jpeg,liked,1.672012706,,,,,,,,,,,,,,
,,,,,,space,3.6395,NAN,,NAN,,0,40,40,40,1,41,Charlie,Acc,Participant_Images/63d1b0363f9bd5a6062dfb1c/63d1b0363f9bd5a6062dfb1c_Images/63d1b0363f9bd5a6062dfb1c_Image_6.jpeg,did not like,4.942172136,,,,,,,,,,,,,,
,,,,,,space,0.4893,NAN,,NAN,,0,41,41,41,1,42,Charlie,Acc,Participant_Images/63d1b0363f9bd5a6062dfb1c/63d1b0363f9bd5a6062dfb1c_Images/63d1b0363f9bd5a6062dfb1c_Image_21.jpeg,did not like,2.50187214,,,,,,,,,,,,,,
,,,,,,space,1.0834,NAN,,NAN,,0,42,42,42,1,43,Charlie,Acc,Participant_Images/63d1b0363f9bd5a6062dfb1c/63d1b0363f9bd5a6062dfb1c_Images/63d1b0363f9bd5a6062dfb1c_Image_1.jpeg,liked,2.071164779,,,,,,,,,,,,,,
,,,,,,space,0.7306,NAN,,NAN,,0,43,43,43,1,44,Charlie,Acc,Participant_Images/63d1b0363f9bd5a6062dfb1c/63d1b0363f9bd5a6062dfb1c_Images/63d1b0363f9bd5a6062dfb1c_Image_30.jpeg,liked,5.336503566,,,,,,,,,,,,,,
,,,,,,,,,,,,,,,,,,,,,,,s,1,space,0.7274,0,0,0,0,1,1.9226,,,,
,,,,,,,,NAN,,NAN,,0,44,44,44,1,45,Charlie,Acc,Participant_Images/63d1b0363f9bd5a6062dfb1c/63d1b0363f9bd5a6062dfb1c_Images/63d1b0363f9bd5a6062dfb1c_Image_28.jpeg,liked,2.642157193,,,,,,,,,,,,,,
,,,,,,space,2.8133,NAN,,NAN,,0,45,45,45,1,46,Charlie,Acc,Participant_Images/63d1b0363f9bd5a6062dfb1c/63d1b0363f9bd5a6062dfb1c_Images/63d1b0363f9bd5a6062dfb1c_Image_9.jpeg,did not like,4.456234322,,,,,,,,,,,,,,
,,,,,,space,0.2816,NAN,,NAN,,0,46,46,46,1,47,Charlie,Acc,Participant_Images/63d1b0363f9bd5a6062dfb1c/63d1b0363f9bd5a6062dfb1c_Images/63d1b0363f9bd5a6062dfb1c_Image_23.jpeg,liked,4.438512181,,,,,,,,,,,,,,
,,,,,,space,0.4076,NAN,,NAN,,0,47,47,47,1,48,Charlie,Acc,Participant_Images/63d1b0363f9bd5a6062dfb1c/63d1b0363f9bd5a6062dfb1c_Images/63d1b0363f9bd5a6062dfb1c_Image_27.jpeg,did not like,2.682944783,,,,,,,,,,,,,,
,,,,,,space,1.4034,NAN,,NAN,,0,48,48,48,1,49,Charlie,Acc,Participant_Images/63d1b0363f9bd5a6062dfb1c/63d1b0363f9bd5a6062dfb1c_Images/63d1b0363f9bd5a6062dfb1c_Image_10.jpeg,did not like,4.51984296,,,,,,,,,,,,,,
,,,,,,,,,,,,,,,,,,,,,,,s,1,space,0.7525,0,0,0,0,1,1.0164,h,0.506,,
,,,,,,,,NAN,,NAN,,0,49,49,49,1,50,Charlie,Acc,Participant_Images/63d1b0363f9bd5a6062dfb1c/63d1b0363f9bd5a6062dfb1c_Images/63d1b0363f9bd5a6062dfb1c_Image_24.jpeg,liked,3.195382774,,,,,,,,,,,,,,
,,,,,,space,4.6576,NAN,,NAN,,0,50,50,50,1,51,Charlie,Acc,Participant_Images/63d1b0363f9bd5a6062dfb1c/63d1b0363f9bd5a6062dfb1c_Images/63d1b0363f9bd5a6062dfb1c_Image_15.jpeg,liked,1.779333479,,,,,,,,,,,,,,
,,,,,,space,0.6061,NAN,,NAN,,0,51,51,51,1,52,Charlie,Acc,Participant_Images/63d1b0363f9bd5a6062dfb1c/63d1b0363f9bd5a6062dfb1c_Images/63d1b0363f9bd5a6062dfb1c_Image_14.jpeg,liked,4.312468682,,,,,,,,,,,,,,
,,,,,,space,0.4098,NAN,,NAN,,0,52,52,52,1,53,Charlie,Acc,Participant_Images/63d1b0363f9bd5a6062dfb1c/63d1b0363f9bd5a6062dfb1c_Images/63d1b0363f9bd5a6062dfb1c_Image_25.jpeg,liked,4.940433059,,,,,,,,,,,,,,
,,,,,,space,0.6019,NAN,,NAN,,0,53,53,53,1,54,Charlie,Acc,Participant_Images/63d1b0363f9bd5a6062dfb1c/63d1b0363f9bd5a6062dfb1c_Images/63d1b0363f9bd5a6062dfb1c_Image_20.jpeg,liked,2.7105123,,,,,,,,,,,,,,
,,,,,,,,,,,,,,,,,,,,,,,s,1,space,0.5583,0,0,0,0,1,1.1098,h,0.3485,,
,,,,,,,,NAN,,NAN,,0,54,54,54,1,55,Charlie,Acc,Participant_Images/63d1b0363f9bd5a6062dfb1c/63d1b0363f9bd5a6062dfb1c_Images/63d1b0363f9bd5a6062dfb1c_Image_8.jpeg,liked,3.602308302,,,,,,,,,,,,,,
,,,,,,space,0.3946,NAN,,NAN,,0,55,55,55,1,56,Charlie,Acc,Participant_Images/63d1b0363f9bd5a6062dfb1c/63d1b0363f9bd5a6062dfb1c_Images/63d1b0363f9bd5a6062dfb1c_Image_17.jpeg,liked,4.106391878,,,,,,,,,,,,,,
,,,,,,space,2.1528,NAN,,NAN,,0,56,56,56,1,57,Charlie,Acc,Participant_Images/63d1b0363f9bd5a6062dfb1c/63d1b0363f9bd5a6062dfb1c_Images/63d1b0363f9bd5a6062dfb1c_Image_5.jpeg,liked,3.799433026,,,,,,,,,,,,,,
,,,,,,space,0.6954,NAN,,NAN,,0,57,57,57,1,58,Charlie,Acc,Participant_Images/63d1b0363f9bd5a6062dfb1c/63d1b0363f9bd5a6062dfb1c_Images/63d1b0363f9bd5a6062dfb1c_Image_11.jpeg,liked,5.246980764,,,,,,,,,,,,,,
,,,,,,space,0.6791,NAN,,NAN,,0,58,58,58,1,59,Charlie,Acc,Participant_Images/63d1b0363f9bd5a6062dfb1c/63d1b0363f9bd5a6062dfb1c_Images/63d1b0363f9bd5a6062dfb1c_Image_12.jpeg,liked,3.30081769,,,,,,,,,,,,,,
,,,,,,,,,,,,,,,,,,,,,,,s,1,space,0.6491,0,0,0,0,1,0.9451,h,0.3018,,
,,,,,,,,5,,1,,0,59,59,59,1,60,Charlie,Acc,Participant_Images/63d1b0363f9bd5a6062dfb1c/63d1b0363f9bd5a6062dfb1c_Images/63d1b0363f9bd5a6062dfb1c_Image_22.jpeg,liked,1.661473164,,,,,,,,,,,,,,
,,,,space,0.7474,space,1.3049,NAN,,NAN,,0,60,60,60,1,61,Taylor,Rej,Participant_Images/63d1b0363f9bd5a6062dfb1c/63d1b0363f9bd5a6062dfb1c_Images/63d1b0363f9bd5a6062dfb1c_Image_30.jpeg,liked,3.613205605,,,,,,,,,,,,,,
,,,,,,space,0.3699,NAN,,NAN,,0,61,61,61,1,62,Taylor,Rej,Participant_Images/63d1b0363f9bd5a6062dfb1c/63d1b0363f9bd5a6062dfb1c_Images/63d1b0363f9bd5a6062dfb1c_Image_15.jpeg,liked,4.988446431,,,,,,,,,,,,,,
,,,,,,space,0.5612,NAN,,NAN,,0,62,62,62,1,63,Taylor,Rej,Participant_Images/63d1b0363f9bd5a6062dfb1c/63d1b0363f9bd5a6062dfb1c_Images/63d1b0363f9bd5a6062dfb1c_Image_10.jpeg,did not like,3.470791822,,,,,,,,,,,,,,
,,,,,,space,0.395,NAN,,NAN,,0,63,63,63,1,64,Taylor,Rej,Participant_Images/63d1b0363f9bd5a6062dfb1c/63d1b0363f9bd5a6062dfb1c_Images/63d1b0363f9bd5a6062dfb1c_Image_25.jpeg,did not like,3.820572462,,,,,,,,,,,,,,
,,,,,,,,,,,,,,,,,,,,,,,s,1,space,0.6184,0,0,0,0,1,1.3575,h,0.3171,,
,,,,,,,,NAN,,NAN,,0,64,64,64,1,65,Taylor,Rej,Participant_Images/63d1b0363f9bd5a6062dfb1c/63d1b0363f9bd5a6062dfb1c_Images/63d1b0363f9bd5a6062dfb1c_Image_24.jpeg,did not like,2.455989137,,,,,,,,,,,,,,
,,,,,,space,1.8592,NAN,,NAN,,0,65,65,65,1,66,Taylor,Rej,Participant_Images/63d1b0363f9bd5a6062dfb1c/63d1b0363f9bd5a6062dfb1c_Images/63d1b0363f9bd5a6062dfb1c_Image_28.jpeg,liked,3.79605092,,,,,,,,,,,,,,
,,,,,,space,1.3033,NAN,,NAN,,0,66,66,66,1,67,Taylor,Rej,Participant_Images/63d1b0363f9bd5a6062dfb1c/63d1b0363f9bd5a6062dfb1c_Images/63d1b0363f9bd5a6062dfb1c_Image_5.jpeg,liked,3.562416326,,,,,,,,,,,,,,
,,,,,,space,0.4083,NAN,,NAN,,0,67,67,67,1,68,Taylor,Rej,Participant_Images/63d1b0363f9bd5a6062dfb1c/63d1b0363f9bd5a6062dfb1c_Images/63d1b0363f9bd5a6062dfb1c_Image_8.jpeg,liked,2.843822497,,,,,,,,,,,,,,
,,,,,,space,0.9578,NAN,,NAN,,0,68,68,68,1,69,Taylor,Rej,Participant_Images/63d1b0363f9bd5a6062dfb1c/63d1b0363f9bd5a6062dfb1c_Images/63d1b0363f9bd5a6062dfb1c_Image_7.jpeg,did not like,3.546495948,,,,,,,,,,,,,,
,,,,,,,,,,,,,,,,,,,,,,,s,1,space,0.6466,0,0,0,0,1,3.0133,h,0.6422,,
,,,,,,,,NAN,,NAN,,0,69,69,69,1,70,Taylor,Rej,Participant_Images/63d1b0363f9bd5a6062dfb1c/63d1b0363f9bd5a6062dfb1c_Images/63d1b0363f9bd5a6062dfb1c_Image_19.jpeg,did not like,1.672012706,,,,,,,,,,,,,,
,,,,,,space,0.7652,NAN,,NAN,,0,70,70,70,1,71,Taylor,Rej,Participant_Images/63d1b0363f9bd5a6062dfb1c/63d1b0363f9bd5a6062dfb1c_Images/63d1b0363f9bd5a6062dfb1c_Image_18.jpeg,did not like,4.942172136,,,,,,,,,,,,,,
,,,,,,space,0.678,NAN,,NAN,,0,71,71,71,1,72,Taylor,Rej,Participant_Images/63d1b0363f9bd5a6062dfb1c/63d1b0363f9bd5a6062dfb1c_Images/63d1b0363f9bd5a6062dfb1c_Image_1.jpeg,did not like,2.50187214,,,,,,,,,,,,,,
,,,,,,space,0.5686,NAN,,NAN,,0,72,72,72,1,73,Taylor,Rej,Participant_Images/63d1b0363f9bd5a6062dfb1c/63d1b0363f9bd5a6062dfb1c_Images/63d1b0363f9bd5a6062dfb1c_Image_17.jpeg,did not like,2.071164779,,,,,,,,,,,,,,
,,,,,,space,0.6913,NAN,,NAN,,0,73,73,73,1,74,Taylor,Rej,Participant_Images/63d1b0363f9bd5a6062dfb1c/63d1b0363f9bd5a6062dfb1c_Images/63d1b0363f9bd5a6062dfb1c_Image_14.jpeg,liked,5.336503566,,,,,,,,,,,,,,
,,,,,,,,,,,,,,,,,,,,,,,s,1,space,0.8756,0,0,0,0,1,1.1298,h,0.6003,,
,,,,,,,,NAN,,NAN,,0,74,74,74,1,75,Taylor,Rej,Participant_Images/63d1b0363f9bd5a6062dfb1c/63d1b0363f9bd5a6062dfb1c_Images/63d1b0363f9bd5a6062dfb1c_Image_12.jpeg,liked,2.642157193,,,,,,,,,,,,,,
,,,,,,space,0.7928,NAN,,NAN,,0,75,75,75,1,76,Taylor,Rej,Participant_Images/63d1b0363f9bd5a6062dfb1c/63d1b0363f9bd5a6062dfb1c_Images/63d1b0363f9bd5a6062dfb1c_Image_13.jpeg,did not like,4.456234322,,,,,,,,,,,,,,
,,,,,,space,0.6116,NAN,,NAN,,0,76,76,76,1,77,Taylor,Rej,Participant_Images/63d1b0363f9bd5a6062dfb1c/63d1b0363f9bd5a6062dfb1c_Images/63d1b0363f9bd5a6062dfb1c_Image_27.jpeg,liked,4.438512181,,,,,,,,,,,,,,
,,,,,,space,0.9751,NAN,,NAN,,0,77,77,77,1,78,Taylor,Rej,Participant_Images/63d1b0363f9bd5a6062dfb1c/63d1b0363f9bd5a6062dfb1c_Images/63d1b0363f9bd5a6062dfb1c_Image_23.jpeg,did not like,2.682944783,,,,,,,,,,,,,,
,,,,,,space,0.7299,NAN,,NAN,,0,78,78,78,1,79,Taylor,Rej,Participant_Images/63d1b0363f9bd5a6062dfb1c/63d1b0363f9bd5a6062dfb1c_Images/63d1b0363f9bd5a6062dfb1c_Image_2.jpeg,did not like,4.51984296,,,,,,,,,,,,,,
,,,,,,,,,,,,,,,,,,,,,,,s,1,space,0.6212,0,0,0,0,1,0.8363,h,0.3072,,
,,,,,,,,NAN,,NAN,,0,79,79,79,1,80,Taylor,Rej,Participant_Images/63d1b0363f9bd5a6062dfb1c/63d1b0363f9bd5a6062dfb1c_Images/63d1b0363f9bd5a6062dfb1c_Image_6.jpeg,did not like,3.195382774,,,,,,,,,,,,,,
,,,,,,space,0.6541,NAN,,NAN,,0,80,80,80,1,81,Taylor,Rej,Participant_Images/63d1b0363f9bd5a6062dfb1c/63d1b0363f9bd5a6062dfb1c_Images/63d1b0363f9bd5a6062dfb1c_Image_16.jpeg,did not like,1.779333479,,,,,,,,,,,,,,
,,,,,,space,1.1537,NAN,,NAN,,0,81,81,81,1,82,Taylor,Rej,Participant_Images/63d1b0363f9bd5a6062dfb1c/63d1b0363f9bd5a6062dfb1c_Images/63d1b0363f9bd5a6062dfb1c_Image_22.jpeg,did not like,4.312468682,,,,,,,,,,,,,,
,,,,,,space,5.4697,NAN,,NAN,,0,82,82,82,1,83,Taylor,Rej,Participant_Images/63d1b0363f9bd5a6062dfb1c/63d1b0363f9bd5a6062dfb1c_Images/63d1b0363f9bd5a6062dfb1c_Image_21.jpeg,did not like,4.940433059,,,,,,,,,,,,,,
,,,,,,space,0.6785,NAN,,NAN,,0,83,83,83,1,84,Taylor,Rej,Participant_Images/63d1b0363f9bd5a6062dfb1c/63d1b0363f9bd5a6062dfb1c_Images/63d1b0363f9bd5a6062dfb1c_Image_29.jpeg,did not like,2.7105123,,,,,,,,,,,,,,
,,,,,,,,,,,,,,,,,,,,,,,s,1,space,1.2943,0,0,0,0,1,3.4962,h,0.3014,,
,,,,,,,,NAN,,NAN,,0,84,84,84,1,85,Taylor,Rej,Participant_Images/63d1b0363f9bd5a6062dfb1c/63d1b0363f9bd5a6062dfb1c_Images/63d1b0363f9bd5a6062dfb1c_Image_11.jpeg,did not like,3.602308302,,,,,,,,,,,,,,
,,,,,,space,1.2964,NAN,,NAN,,0,85,85,85,1,86,Taylor,Rej,Participant_Images/63d1b0363f9bd5a6062dfb1c/63d1b0363f9bd5a6062dfb1c_Images/63d1b0363f9bd5a6062dfb1c_Image_20.jpeg,did not like,4.106391878,,,,,,,,,,,,,,
,,,,,,space,1.9693,NAN,,NAN,,0,86,86,86,1,87,Taylor,Rej,Participant_Images/63d1b0363f9bd5a6062dfb1c/63d1b0363f9bd5a6062dfb1c_Images/63d1b0363f9bd5a6062dfb1c_Image_3.jpeg,did not like,3.799433026,,,,,,,,,,,,,,
,,,,,,space,1.5095,NAN,,NAN,,0,87,87,87,1,88,Taylor,Rej,Participant_Images/63d1b0363f9bd5a6062dfb1c/63d1b0363f9bd5a6062dfb1c_Images/63d1b0363f9bd5a6062dfb1c_Image_26.jpeg,did not like,5.246980764,,,,,,,,,,,,,,
,,,,,,space,0.4127,NAN,,NAN,,0,88,88,88,1,89,Taylor,Rej,Participant_Images/63d1b0363f9bd5a6062dfb1c/63d1b0363f9bd5a6062dfb1c_Images/63d1b0363f9bd5a6062dfb1c_Image_9.jpeg,did not like,3.30081769,,,,,,,,,,,,,,
,,,,,,,,,,,,,,,,,,,,,,,s,1,space,0.6786,0,0,0,0,1,0.838,h,0.1869,,
,,,,,,,,2,,7,,0,89,89,89,1,90,Taylor,Rej,Participant_Images/63d1b0363f9bd5a6062dfb1c/63d1b0363f9bd5a6062dfb1c_Images/63d1b0363f9bd5a6062dfb1c_Image_4.jpeg,liked,1.661473164,,,,,,,,,,,,,,
,,,,space,1.5343,space,0.875,NAN,,NAN,,0,90,90,90,1,91,Alex,Rej,Participant_Images/63d1b0363f9bd5a6062dfb1c/63d1b0363f9bd5a6062dfb1c_Images/63d1b0363f9bd5a6062dfb1c_Image_15.jpeg,did not like,3.613205605,,,,,,,,,,,,,,
,,,,,,space,0.5416,NAN,,NAN,,0,91,91,91,1,92,Alex,Rej,Participant_Images/63d1b0363f9bd5a6062dfb1c/63d1b0363f9bd5a6062dfb1c_Images/63d1b0363f9bd5a6062dfb1c_Image_11.jpeg,liked,4.988446431,,,,,,,,,,,,,,
,,,,,,space,0.4303,NAN,,NAN,,0,92,92,92,1,93,Alex,Rej,Participant_Images/63d1b0363f9bd5a6062dfb1c/63d1b0363f9bd5a6062dfb1c_Images/63d1b0363f9bd5a6062dfb1c_Image_23.jpeg,did not like,3.470791822,,,,,,,,,,,,,,
,,,,,,space,0.6259,NAN,,NAN,,0,93,93,93,1,94,Alex,Rej,Participant_Images/63d1b0363f9bd5a6062dfb1c/63d1b0363f9bd5a6062dfb1c_Images/63d1b0363f9bd5a6062dfb1c_Image_16.jpeg,did not like,3.820572462,,,,,,,,,,,,,,
,,,,,,,,,,,,,,,,,,,,,,,s,1,space,0.6257,0,0,0,0,1,0.9109,h,0.3396,,
,,,,,,,,NAN,,NAN,,0,94,94,94,1,95,Alex,Rej,Participant_Images/63d1b0363f9bd5a6062dfb1c/63d1b0363f9bd5a6062dfb1c_Images/63d1b0363f9bd5a6062dfb1c_Image_29.jpeg,liked,2.455989137,,,,,,,,,,,,,,
,,,,,,space,1.3217,NAN,,NAN,,0,95,95,95,1,96,Alex,Rej,Participant_Images/63d1b0363f9bd5a6062dfb1c/63d1b0363f9bd5a6062dfb1c_Images/63d1b0363f9bd5a6062dfb1c_Image_6.jpeg,liked,3.79605092,,,,,,,,,,,,,,
,,,,,,space,0.6377,NAN,,NAN,,0,96,96,96,1,97,Alex,Rej,Participant_Images/63d1b0363f9bd5a6062dfb1c/63d1b0363f9bd5a6062dfb1c_Images/63d1b0363f9bd5a6062dfb1c_Image_19.jpeg,did not like,3.562416326,,,,,,,,,,,,,,
,,,,,,space,0.7438,NAN,,NAN,,0,97,97,97,1,98,Alex,Rej,Participant_Images/63d1b0363f9bd5a6062dfb1c/63d1b0363f9bd5a6062dfb1c_Images/63d1b0363f9bd5a6062dfb1c_Image_8.jpeg,did not like,2.843822497,,,,,,,,,,,,,,
,,,,,,space,7.5842,NAN,,NAN,,0,98,98,98,1,99,Alex,Rej,Participant_Images/63d1b0363f9bd5a6062dfb1c/63d1b0363f9bd5a6062dfb1c_Images/63d1b0363f9bd5a6062dfb1c_Image_7.jpeg,did not like,3.546495948,,,,,,,,,,,,,,
,,,,,,,,,,,,,,,,,,,,,,,s,1,space,0.6502,0,0,0,0,1,1.5444,h,0.4052,,
,,,,,,,,NAN,,NAN,,0,99,99,99,1,100,Alex,Rej,Participant_Images/63d1b0363f9bd5a6062dfb1c/63d1b0363f9bd5a6062dfb1c_Images/63d1b0363f9bd5a6062dfb1c_Image_12.jpeg,did not like,1.672012706,,,,,,,,,,,,,,
,,,,,,space,0.6957,NAN,,NAN,,0,100,100,100,1,101,Alex,Rej,Participant_Images/63d1b0363f9bd5a6062dfb1c/63d1b0363f9bd5a6062dfb1c_Images/63d1b0363f9bd5a6062dfb1c_Image_21.jpeg,did not like,4.942172136,,,,,,,,,,,,,,
,,,,,,space,0.3615,NAN,,NAN,,0,101,101,101,1,102,Alex,Rej,Participant_Images/63d1b0363f9bd5a6062dfb1c/63d1b0363f9bd5a6062dfb1c_Images/63d1b0363f9bd5a6062dfb1c_Image_4.jpeg,did not like,2.50187214,,,,,,,,,,,,,,
,,,,,,space,0.8056,NAN,,NAN,,0,102,102,102,1,103,Alex,Rej,Participant_Images/63d1b0363f9bd5a6062dfb1c/63d1b0363f9bd5a6062dfb1c_Images/63d1b0363f9bd5a6062dfb1c_Image_3.jpeg,did not like,2.071164779,,,,,,,,,,,,,,
,,,,,,space,0.5535,NAN,,NAN,,0,103,103,103,1,104,Alex,Rej,Participant_Images/63d1b0363f9bd5a6062dfb1c/63d1b0363f9bd5a6062dfb1c_Images/63d1b0363f9bd5a6062dfb1c_Image_20.jpeg,did not like,5.336503566,,,,,,,,,,,,,,
,,,,,,,,,,,,,,,,,,,,,,,s,1,space,1.2874,0,0,0,0,1,1.2238,h,0.2637,,
,,,,,,,,NAN,,NAN,,0,104,104,104,1,105,Alex,Rej,Participant_Images/63d1b0363f9bd5a6062dfb1c/63d1b0363f9bd5a6062dfb1c_Images/63d1b0363f9bd5a6062dfb1c_Image_22.jpeg,did not like,2.642157193,,,,,,,,,,,,,,
,,,,,,space,0.9511,NAN,,NAN,,0,105,105,105,1,106,Alex,Rej,Participant_Images/63d1b0363f9bd5a6062dfb1c/63d1b0363f9bd5a6062dfb1c_Images/63d1b0363f9bd5a6062dfb1c_Image_26.jpeg,did not like,4.456234322,,,,,,,,,,,,,,
,,,,,,space,5.619,NAN,,NAN,,0,106,106,106,1,107,Alex,Rej,Participant_Images/63d1b0363f9bd5a6062dfb1c/63d1b0363f9bd5a6062dfb1c_Images/63d1b0363f9bd5a6062dfb1c_Image_17.jpeg,did not like,4.438512181,,,,,,,,,,,,,,
,,,,,,space,0.8221,NAN,,NAN,,0,107,107,107,1,108,Alex,Rej,Participant_Images/63d1b0363f9bd5a6062dfb1c/63d1b0363f9bd5a6062dfb1c_Images/63d1b0363f9bd5a6062dfb1c_Image_9.jpeg,liked,2.682944783,,,,,,,,,,,,,,
,,,,,,space,0.7112,NAN,,NAN,,0,108,108,108,1,109,Alex,Rej,Participant_Images/63d1b0363f9bd5a6062dfb1c/63d1b0363f9bd5a6062dfb1c_Images/63d1b0363f9bd5a6062dfb1c_Image_24.jpeg,did not like,4.51984296,,,,,,,,,,,,,,
,,,,,,,,,,,,,,,,,,,,,,,s,1,space,4.0652,0,0,0,0,1,0.93,h,0.3795,,
,,,,,,,,NAN,,NAN,,0,109,109,109,1,110,Alex,Rej,Participant_Images/63d1b0363f9bd5a6062dfb1c/63d1b0363f9bd5a6062dfb1c_Images/63d1b0363f9bd5a6062dfb1c_Image_13.jpeg,did not like,3.195382774,,,,,,,,,,,,,,
,,,,,,space,0.6323,NAN,,NAN,,0,110,110,110,1,111,Alex,Rej,Participant_Images/63d1b0363f9bd5a6062dfb1c/63d1b0363f9bd5a6062dfb1c_Images/63d1b0363f9bd5a6062dfb1c_Image_2.jpeg,liked,1.779333479,,,,,,,,,,,,,,
,,,,,,space,0.4331,NAN,,NAN,,0,111,111,111,1,112,Alex,Rej,Participant_Images/63d1b0363f9bd5a6062dfb1c/63d1b0363f9bd5a6062dfb1c_Images/63d1b0363f9bd5a6062dfb1c_Image_14.jpeg,liked,4.312468682,,,,,,,,,,,,,,
,,,,,,space,0.4831,NAN,,NAN,,0,112,112,112,1,113,Alex,Rej,Participant_Images/63d1b0363f9bd5a6062dfb1c/63d1b0363f9bd5a6062dfb1c_Images/63d1b0363f9bd5a6062dfb1c_Image_10.jpeg,did not like,4.940433059,,,,,,,,,,,,,,
,,,,,,space,0.7365,NAN,,NAN,,0,113,113,113,1,114,Alex,Rej,Participant_Images/63d1b0363f9bd5a6062dfb1c/63d1b0363f9bd5a6062dfb1c_Images/63d1b0363f9bd5a6062dfb1c_Image_27.jpeg,did not like,2.7105123,,,,,,,,,,,,,,
,,,,,,,,,,,,,,,,,,,,,,,s,1,space,0.6499,0,0,0,0,1,0.8767,h,1.9834,,
,,,,,,,,NAN,,NAN,,0,114,114,114,1,115,Alex,Rej,Participant_Images/63d1b0363f9bd5a6062dfb1c/63d1b0363f9bd5a6062dfb1c_Images/63d1b0363f9bd5a6062dfb1c_Image_28.jpeg,liked,3.602308302,,,,,,,,,,,,,,
,,,,,,space,0.9805,NAN,,NAN,,0,115,115,115,1,116,Alex,Rej,Participant_Images/63d1b0363f9bd5a6062dfb1c/63d1b0363f9bd5a6062dfb1c_Images/63d1b0363f9bd5a6062dfb1c_Image_30.jpeg,did not like,4.106391878,,,,,,,,,,,,,,
,,,,,,space,1.0349,NAN,,NAN,,0,116,116,116,1,117,Alex,Rej,Participant_Images/63d1b0363f9bd5a6062dfb1c/63d1b0363f9bd5a6062dfb1c_Images/63d1b0363f9bd5a6062dfb1c_Image_25.jpeg,did not like,3.799433026,,,,,,,,,,,,,,
,,,,,,space,0.7408,NAN,,NAN,,0,117,117,117,1,118,Alex,Rej,Participant_Images/63d1b0363f9bd5a6062dfb1c/63d1b0363f9bd5a6062dfb1c_Images/63d1b0363f9bd5a6062dfb1c_Image_1.jpeg,liked,5.246980764,,,,,,,,,,,,,,
,,,,,,space,0.477,NAN,,NAN,,0,118,118,118,1,119,Alex,Rej,Participant_Images/63d1b0363f9bd5a6062dfb1c/63d1b0363f9bd5a6062dfb1c_Images/63d1b0363f9bd5a6062dfb1c_Image_18.jpeg,did not like,3.30081769,,,,,,,,,,,,,,
,,,,,,,,,,,,,,,,,,,,,,,s,1,space,0.4445,0,0,0,0,1,0.7726,h,0.1884,,
,,,,,,,,2,,7,,0,119,119,119,1,120,Alex,Rej,Participant_Images/63d1b0363f9bd5a6062dfb1c/63d1b0363f9bd5a6062dfb1c_Images/63d1b0363f9bd5a6062dfb1c_Image_5.jpeg,liked,1.661473164,,,,,,,,,,,,,,
,,,,space,1.8068,space,7.9784,NAN,,NAN,,0,120,120,120,1,121,Riley,Acc,Participant_Images/63d1b0363f9bd5a6062dfb1c/63d1b0363f9bd5a6062dfb1c_Images/63d1b0363f9bd5a6062dfb1c_Image_20.jpeg,liked,3.613205605,,,,,,,,,,,,,,
,,,,,,space,1.2856,NAN,,NAN,,0,121,121,121,1,122,Riley,Acc,Participant_Images/63d1b0363f9bd5a6062dfb1c/63d1b0363f9bd5a6062dfb1c_Images/63d1b0363f9bd5a6062dfb1c_Image_18.jpeg,did not like,4.988446431,,,,,,,,,,,,,,
,,,,,,space,0.4562,NAN,,NAN,,0,122,122,122,1,123,Riley,Acc,Participant_Images/63d1b0363f9bd5a6062dfb1c/63d1b0363f9bd5a6062dfb1c_Images/63d1b0363f9bd5a6062dfb1c_Image_19.jpeg,did not like,3.470791822,,,,,,,,,,,,,,
,,,,,,space,0.5059,NAN,,NAN,,0,123,123,123,1,124,Riley,Acc,Participant_Images/63d1b0363f9bd5a6062dfb1c/63d1b0363f9bd5a6062dfb1c_Images/63d1b0363f9bd5a6062dfb1c_Image_28.jpeg,liked,3.820572462,,,,,,,,,,,,,,
,,,,,,,,,,,,,,,,,,,,,,,s,1,space,1.0324,0,0,0,0,1,1.0879,h,0.4096,,
,,,,,,,,NAN,,NAN,,0,124,124,124,1,125,Riley,Acc,Participant_Images/63d1b0363f9bd5a6062dfb1c/63d1b0363f9bd5a6062dfb1c_Images/63d1b0363f9bd5a6062dfb1c_Image_4.jpeg,liked,2.455989137,,,,,,,,,,,,,,
,,,,,,space,2.767,NAN,,NAN,,0,125,125,125,1,126,Riley,Acc,Participant_Images/63d1b0363f9bd5a6062dfb1c/63d1b0363f9bd5a6062dfb1c_Images/63d1b0363f9bd5a6062dfb1c_Image_12.jpeg,liked,3.79605092,,,,,,,,,,,,,,
,,,,,,space,1.8057,NAN,,NAN,,0,126,126,126,1,127,Riley,Acc,Participant_Images/63d1b0363f9bd5a6062dfb1c/63d1b0363f9bd5a6062dfb1c_Images/63d1b0363f9bd5a6062dfb1c_Image_13.jpeg,liked,3.562416326,,,,,,,,,,,,,,
,,,,,,space,7.7107,NAN,,NAN,,0,127,127,127,1,128,Riley,Acc,Participant_Images/63d1b0363f9bd5a6062dfb1c/63d1b0363f9bd5a6062dfb1c_Images/63d1b0363f9bd5a6062dfb1c_Image_8.jpeg,liked,2.843822497,,,,,,,,,,,,,,
,,,,,,space,7.3942,NAN,,NAN,,0,128,128,128,1,129,Riley,Acc,Participant_Images/63d1b0363f9bd5a6062dfb1c/63d1b0363f9bd5a6062dfb1c_Images/63d1b0363f9bd5a6062dfb1c_Image_17.jpeg,did not like,3.546495948,,,,,,,,,,,,,,
,,,,,,,,,,,,,,,,,,,,,,,s,1,space,2.0395,0,0,0,0,1,1.312,h,0.1649,,
,,,,,,,,NAN,,NAN,,0,129,129,129,1,130,Riley,Acc,Participant_Images/63d1b0363f9bd5a6062dfb1c/63d1b0363f9bd5a6062dfb1c_Images/63d1b0363f9bd5a6062dfb1c_Image_22.jpeg,liked,1.672012706,,,,,,,,,,,,,,
,,,,,,space,2.4159,NAN,,NAN,,0,130,130,130,1,131,Riley,Acc,Participant_Images/63d1b0363f9bd5a6062dfb1c/63d1b0363f9bd5a6062dfb1c_Images/63d1b0363f9bd5a6062dfb1c_Image_30.jpeg,liked,4.942172136,,,,,,,,,,,,,,
,,,,,,space,0.8594,NAN,,NAN,,0,131,131,131,1,132,Riley,Acc,Participant_Images/63d1b0363f9bd5a6062dfb1c/63d1b0363f9bd5a6062dfb1c_Images/63d1b0363f9bd5a6062dfb1c_Image_5.jpeg,liked,2.50187214,,,,,,,,,,,,,,
,,,,,,space,3.5579,NAN,,NAN,,0,132,132,132,1,133,Riley,Acc,Participant_Images/63d1b0363f9bd5a6062dfb1c/63d1b0363f9bd5a6062dfb1c_Images/63d1b0363f9bd5a6062dfb1c_Image_29.jpeg,did not like,2.071164779,,,,,,,,,,,,,,
,,,,,,space,0.9973,NAN,,NAN,,0,133,133,133,1,134,Riley,Acc,Participant_Images/63d1b0363f9bd5a6062dfb1c/63d1b0363f9bd5a6062dfb1c_Images/63d1b0363f9bd5a6062dfb1c_Image_15.jpeg,liked,5.336503566,,,,,,,,,,,,,,
,,,,,,,,,,,,,,,,,,,,,,,,999,space,6.3097,0,0,0,0,1,,,,,
,,,,,,,,NAN,,NAN,,0,134,134,134,1,135,Riley,Acc,Participant_Images/63d1b0363f9bd5a6062dfb1c/63d1b0363f9bd5a6062dfb1c_Images/63d1b0363f9bd5a6062dfb1c_Image_6.jpeg,liked,2.642157193,,,,,,,,,,,,,,
,,,,,,space,0.4123,NAN,,NAN,,0,135,135,135,1,136,Riley,Acc,Participant_Images/63d1b0363f9bd5a6062dfb1c/63d1b0363f9bd5a6062dfb1c_Images/63d1b0363f9bd5a6062dfb1c_Image_23.jpeg,liked,4.456234322,,,,,,,,,,,,,,
,,,,,,space,0.5529,NAN,,NAN,,0,136,136,136,1,137,Riley,Acc,Participant_Images/63d1b0363f9bd5a6062dfb1c/63d1b0363f9bd5a6062dfb1c_Images/63d1b0363f9bd5a6062dfb1c_Image_24.jpeg,did not like,4.438512181,,,,,,,,,,,,,,
,,,,,,space,0.6665,NAN,,NAN,,0,137,137,137,1,138,Riley,Acc,Participant_Images/63d1b0363f9bd5a6062dfb1c/63d1b0363f9bd5a6062dfb1c_Images/63d1b0363f9bd5a6062dfb1c_Image_2.jpeg,liked,2.682944783,,,,,,,,,,,,,,
,,,,,,space,0.9765,NAN,,NAN,,0,138,138,138,1,139,Riley,Acc,Participant_Images/63d1b0363f9bd5a6062dfb1c/63d1b0363f9bd5a6062dfb1c_Images/63d1b0363f9bd5a6062dfb1c_Image_3.jpeg,did not like,4.51984296,,,,,,,,,,,,,,
,,,,,,,,,,,,,,,,,,,,,,,s,1,space,0.6509,0,0,0,0,1,0.9593,h,0.378,,
,,,,,,,,NAN,,NAN,,0,139,139,139,1,140,Riley,Acc,Participant_Images/63d1b0363f9bd5a6062dfb1c/63d1b0363f9bd5a6062dfb1c_Images/63d1b0363f9bd5a6062dfb1c_Image_1.jpeg,did not like,3.195382774,,,,,,,,,,,,,,
,,,,,,space,0.6041,NAN,,NAN,,0,140,140,140,1,141,Riley,Acc,Participant_Images/63d1b0363f9bd5a6062dfb1c/63d1b0363f9bd5a6062dfb1c_Images/63d1b0363f9bd5a6062dfb1c_Image_21.jpeg,liked,1.779333479,,,,,,,,,,,,,,
,,,,,,space,0.5023,NAN,,NAN,,0,141,141,141,1,142,Riley,Acc,Participant_Images/63d1b0363f9bd5a6062dfb1c/63d1b0363f9bd5a6062dfb1c_Images/63d1b0363f9bd5a6062dfb1c_Image_27.jpeg,liked,4.312468682,,,,,,,,,,,,,,
,,,,,,space,0.5708,NAN,,NAN,,0,142,142,142,1,143,Riley,Acc,Participant_Images/63d1b0363f9bd5a6062dfb1c/63d1b0363f9bd5a6062dfb1c_Images/63d1b0363f9bd5a6062dfb1c_Image_10.jpeg,did not like,4.940433059,,,,,,,,,,,,,,
,,,,,,space,0.4984,NAN,,NAN,,0,143,143,143,1,144,Riley,Acc,Participant_Images/63d1b0363f9bd5a6062dfb1c/63d1b0363f9bd5a6062dfb1c_Images/63d1b0363f9bd5a6062dfb1c_Image_25.jpeg,liked,2.7105123,,,,,,,,,,,,,,
,,,,,,,,,,,,,,,,,,,,,,,s,1,space,1.1359,0,0,0,0,1,2.0002,h,0.2722,,
,,,,,,,,NAN,,NAN,,0,144,144,144,1,145,Riley,Acc,Participant_Images/63d1b0363f9bd5a6062dfb1c/63d1b0363f9bd5a6062dfb1c_Images/63d1b0363f9bd5a6062dfb1c_Image_26.jpeg,liked,3.602308302,,,,,,,,,,,,,,
,,,,,,space,0.6819,NAN,,NAN,,0,145,145,145,1,146,Riley,Acc,Participant_Images/63d1b0363f9bd5a6062dfb1c/63d1b0363f9bd5a6062dfb1c_Images/63d1b0363f9bd5a6062dfb1c_Image_9.jpeg,liked,4.106391878,,,,,,,,,,,,,,
,,,,,,space,1.6979,NAN,,NAN,,0,146,146,146,1,147,Riley,Acc,Participant_Images/63d1b0363f9bd5a6062dfb1c/63d1b0363f9bd5a6062dfb1c_Images/63d1b0363f9bd5a6062dfb1c_Image_7.jpeg,liked,3.799433026,,,,,,,,,,,,,,
,,,,,,space,0.3685,NAN,,NAN,,0,147,147,147,1,148,Riley,Acc,Participant_Images/63d1b0363f9bd5a6062dfb1c/63d1b0363f9bd5a6062dfb1c_Images/63d1b0363f9bd5a6062dfb1c_Image_16.jpeg,liked,5.246980764,,,,,,,,,,,,,,
,,,,,,space,0.6094,NAN,,NAN,,0,148,148,148,1,149,Riley,Acc,Participant_Images/63d1b0363f9bd5a6062dfb1c/63d1b0363f9bd5a6062dfb1c_Images/63d1b0363f9bd5a6062dfb1c_Image_11.jpeg,liked,3.30081769,,,,,,,,,,,,,,
,,,,,,,,,,,,,,,,,,,,,,,s,1,space,5.0738,0,0,0,0,1,0.481,h,1.4207,,
,,,,,,,,3,,5,,0,149,149,149,1,150,Riley,Acc,Participant_Images/63d1b0363f9bd5a6062dfb1c/63d1b0363f9bd5a6062dfb1c_Images/63d1b0363f9bd5a6062dfb1c_Image_14.jpeg,did not like,1.661473164,,,,,,,,,,,,,,
,,,,,,,,,,,,,,,,,,,,,,,,,,,,,,,,,,,space,3.9501
