PROLIFIC_ID,endwelcomescreen_keys.keys,endwelcomescreen_keys.rt,endinstructionscreen_keys.keys,endinstructionscreen_keys.rt,endpartnermatch_keys.keys,endpartnermatch_keys.rt,sharenextphoto_key.keys,sharenextphoto_key.rt,salience_rating,key_resp.keys,stress_level,stresslevel_keypress.keys,entiretaskloop.thisRepN,entiretaskloop.thisTrialN,entiretaskloop.thisN,entiretaskloop.thisIndex,entiretaskloop.ran,TrialNumber,Partner,Condition,Photos,Feedback,FeedbackWait,choice_keys.keys,playlottery,resumeafterlottery_keys.keys,resumeafterlottery_keys.rt,lotteryloop.thisRepN,lotteryloop.thisTrialN,lotteryloop.thisN,lotteryloop.thisIndex,lotteryloop.ran,choice_keys.rt,lotteryguess_keys.keys,end_screen_keys.keys,end_screen_keys.rt
63d3f9d0ab6c170778b0d3d1,space,51.22,,,,,,,,,,,,,,,,,,,,,,,,,,,,,,,,,,
,,,,,,,,,,,,,,,,,,,,,,,,,,,,,,,,,,,,
,,,space,16.218,,,,,,,,,,,,,,,,,,,,,,,,,,,,,,,,
,,,,,space,9.351,space,2.861,NAN,,NAN,,0,0,0,0,1,1,Charlie,Rej,Participant_Images/63d3f9d0ab6c170778b0d3d1/63d3f9d0ab6c170778b0d3d1_Images/63d3f9d0ab6c170778b0d3d1_Image_17.jpeg,did not like,3.613205605,,,,,,,,,,,,,
,,,,,,,space,5.587,NAN,,NAN,,0,1,1,1,1,2,Charlie,Rej,Participant_Images/63d3f9d0ab6c170778b0d3d1/63d3f9d0ab6c170778b0d3d1_Images/63d3f9d0ab6c170778b0d3d1_Image_26.jpeg,did not like,4.988446431,,,,,,,,,,,,,
,,,,,,,space,1.206,NAN,,NAN,,0,2,2,2,1,3,Charlie,Rej,Participant_Images/63d3f9d0ab6c170778b0d3d1/63d3f9d0ab6c170778b0d3d1_Images/63d3f9d0ab6c170778b0d3d1_Image_27.jpeg,did not like,3.470791822,,,,,,,,,,,,,
,,,,,,,space,0.808,NAN,,NAN,,0,3,3,3,1,4,Charlie,Rej,Participant_Images/63d3f9d0ab6c170778b0d3d1/63d3f9d0ab6c170778b0d3d1_Images/63d3f9d0ab6c170778b0d3d1_Image_24.jpeg,did not like,3.820572462,,,,,,,,,,,,,
,,,,,,,,,,,,,,,,,,,,,,,,,999,space,3.264,0,0,0,0,1,,,,
,,,,,,,,,NAN,,NAN,,0,4,4,4,1,5,Charlie,Rej,Participant_Images/63d3f9d0ab6c170778b0d3d1/63d3f9d0ab6c170778b0d3d1_Images/63d3f9d0ab6c170778b0d3d1_Image_4.jpeg,did not like,2.455989137,,,,,,,,,,,,,
,,,,,,,space,0.92,NAN,,NAN,,0,5,5,5,1,6,Charlie,Rej,Participant_Images/63d3f9d0ab6c170778b0d3d1/63d3f9d0ab6c170778b0d3d1_Images/63d3f9d0ab6c170778b0d3d1_Image_14.jpeg,did not like,3.79605092,,,,,,,,,,,,,
,,,,,,,space,0.903,NAN,,NAN,,0,6,6,6,1,7,Charlie,Rej,Participant_Images/63d3f9d0ab6c170778b0d3d1/63d3f9d0ab6c170778b0d3d1_Images/63d3f9d0ab6c170778b0d3d1_Image_3.jpeg,did not like,3.562416326,,,,,,,,,,,,,
,,,,,,,space,0.386,NAN,,NAN,,0,7,7,7,1,8,Charlie,Rej,Participant_Images/63d3f9d0ab6c170778b0d3d1/63d3f9d0ab6c170778b0d3d1_Images/63d3f9d0ab6c170778b0d3d1_Image_15.jpeg,did not like,2.843822497,,,,,,,,,,,,,
,,,,,,,space,0.653,NAN,,NAN,,0,8,8,8,1,9,Charlie,Rej,Participant_Images/63d3f9d0ab6c170778b0d3d1/63d3f9d0ab6c170778b0d3d1_Images/63d3f9d0ab6c170778b0d3d1_Image_23.jpeg,did not like,3.546495948,,,,,,,,,,,,,
,,,,,,,,,,,,,,,,,,,,,,,,c,0,space,1.063,0,0,0,0,1,1.727,,,
,,,,,,,,,NAN,,NAN,,0,9,9,9,1,10,Charlie,Rej,Participant_Images/63d3f9d0ab6c170778b0d3d1/63d3f9d0ab6c170778b0d3d1_Images/63d3f9d0ab6c170778b0d3d1_Image_20.jpeg,liked,1.672012706,,,,,,,,,,,,,
,,,,,,,space,0.77,NAN,,NAN,,0,10,10,10,1,11,Charlie,Rej,Participant_Images/63d3f9d0ab6c170778b0d3d1/63d3f9d0ab6c170778b0d3d1_Images/63d3f9d0ab6c170778b0d3d1_Image_11.jpeg,liked,4.942172136,,,,,,,,,,,,,
,,,,,,,space,2.318,NAN,,NAN,,0,11,11,11,1,12,Charlie,Rej,Participant_Images/63d3f9d0ab6c170778b0d3d1/63d3f9d0ab6c170778b0d3d1_Images/63d3f9d0ab6c170778b0d3d1_Image_29.jpeg,did not like,2.50187214,,,,,,,,,,,,,
,,,,,,,space,0.637,NAN,,NAN,,0,12,12,12,1,13,Charlie,Rej,Participant_Images/63d3f9d0ab6c170778b0d3d1/63d3f9d0ab6c170778b0d3d1_Images/63d3f9d0ab6c170778b0d3d1_Image_18.jpeg,liked,2.071164779,,,,,,,,,,,,,
,,,,,,,space,0.837,NAN,,NAN,,0,13,13,13,1,14,Charlie,Rej,Participant_Images/63d3f9d0ab6c170778b0d3d1/63d3f9d0ab6c170778b0d3d1_Images/63d3f9d0ab6c170778b0d3d1_Image_21.jpeg,did not like,5.336503566,,,,,,,,,,,,,
,,,,,,,,,,,,,,,,,,,,,,,,c,0,space,1.101,0,0,0,0,1,0.985,,,
,,,,,,,,,NAN,,NAN,,0,14,14,14,1,15,Charlie,Rej,Participant_Images/63d3f9d0ab6c170778b0d3d1/63d3f9d0ab6c170778b0d3d1_Images/63d3f9d0ab6c170778b0d3d1_Image_6.jpeg,did not like,2.642157193,,,,,,,,,,,,,
,,,,,,,space,0.703,NAN,,NAN,,0,15,15,15,1,16,Charlie,Rej,Participant_Images/63d3f9d0ab6c170778b0d3d1/63d3f9d0ab6c170778b0d3d1_Images/63d3f9d0ab6c170778b0d3d1_Image_2.jpeg,did not like,4.456234322,,,,,,,,,,,,,
,,,,,,,space,1.621,NAN,,NAN,,0,16,16,16,1,17,Charlie,Rej,Participant_Images/63d3f9d0ab6c170778b0d3d1/63d3f9d0ab6c170778b0d3d1_Images/63d3f9d0ab6c170778b0d3d1_Image_7.jpeg,did not like,4.438512181,,,,,,,,,,,,,
,,,,,,,space,1.187,NAN,,NAN,,0,17,17,17,1,18,Charlie,Rej,Participant_Images/63d3f9d0ab6c170778b0d3d1/63d3f9d0ab6c170778b0d3d1_Images/63d3f9d0ab6c170778b0d3d1_Image_16.jpeg,did not like,2.682944783,,,,,,,,,,,,,
,,,,,,,space,0.922,NAN,,NAN,,0,18,18,18,1,19,Charlie,Rej,Participant_Images/63d3f9d0ab6c170778b0d3d1/63d3f9d0ab6c170778b0d3d1_Images/63d3f9d0ab6c170778b0d3d1_Image_28.jpeg,liked,4.51984296,,,,,,,,,,,,,
,,,,,,,,,,,,,,,,,,,,,,,,s,1,space,0.99,0,0,0,0,1,1.402,,,
,,,,,,,,,NAN,,NAN,,0,19,19,19,1,20,Charlie,Rej,Participant_Images/63d3f9d0ab6c170778b0d3d1/63d3f9d0ab6c170778b0d3d1_Images/63d3f9d0ab6c170778b0d3d1_Image_13.jpeg,liked,3.195382774,,,,,,,,,,,,,
,,,,,,,space,1,NAN,,NAN,,0,20,20,20,1,21,Charlie,Rej,Participant_Images/63d3f9d0ab6c170778b0d3d1/63d3f9d0ab6c170778b0d3d1_Images/63d3f9d0ab6c170778b0d3d1_Image_25.jpeg,liked,1.779333479,,,,,,,,,,,,,
,,,,,,,space,0.803,NAN,,NAN,,0,21,21,21,1,22,Charlie,Rej,Participant_Images/63d3f9d0ab6c170778b0d3d1/63d3f9d0ab6c170778b0d3d1_Images/63d3f9d0ab6c170778b0d3d1_Image_22.jpeg,did not like,4.312468682,,,,,,,,,,,,,
,,,,,,,space,0.804,NAN,,NAN,,0,22,22,22,1,23,Charlie,Rej,Participant_Images/63d3f9d0ab6c170778b0d3d1/63d3f9d0ab6c170778b0d3d1_Images/63d3f9d0ab6c170778b0d3d1_Image_5.jpeg,did not like,4.940433059,,,,,,,,,,,,,
,,,,,,,space,0.97,NAN,,NAN,,0,23,23,23,1,24,Charlie,Rej,Participant_Images/63d3f9d0ab6c170778b0d3d1/63d3f9d0ab6c170778b0d3d1_Images/63d3f9d0ab6c170778b0d3d1_Image_10.jpeg,did not like,2.7105123,,,,,,,,,,,,,
,,,,,,,,,,,,,,,,,,,,,,,,c,0,space,0.717,0,0,0,0,1,1.163,,,
,,,,,,,,,NAN,,NAN,,0,24,24,24,1,25,Charlie,Rej,Participant_Images/63d3f9d0ab6c170778b0d3d1/63d3f9d0ab6c170778b0d3d1_Images/63d3f9d0ab6c170778b0d3d1_Image_19.jpeg,liked,3.602308302,,,,,,,,,,,,,
,,,,,,,space,0.989,NAN,,NAN,,0,25,25,25,1,26,Charlie,Rej,Participant_Images/63d3f9d0ab6c170778b0d3d1/63d3f9d0ab6c170778b0d3d1_Images/63d3f9d0ab6c170778b0d3d1_Image_9.jpeg,did not like,4.106391878,,,,,,,,,,,,,
,,,,,,,space,0.737,NAN,,NAN,,0,26,26,26,1,27,Charlie,Rej,Participant_Images/63d3f9d0ab6c170778b0d3d1/63d3f9d0ab6c170778b0d3d1_Images/63d3f9d0ab6c170778b0d3d1_Image_30.jpeg,liked,3.799433026,,,,,,,,,,,,,
,,,,,,,space,0.803,NAN,,NAN,,0,27,27,27,1,28,Charlie,Rej,Participant_Images/63d3f9d0ab6c170778b0d3d1/63d3f9d0ab6c170778b0d3d1_Images/63d3f9d0ab6c170778b0d3d1_Image_1.jpeg,did not like,5.246980764,,,,,,,,,,,,,
,,,,,,,space,0.787,NAN,,NAN,,0,28,28,28,1,29,Charlie,Rej,Participant_Images/63d3f9d0ab6c170778b0d3d1/63d3f9d0ab6c170778b0d3d1_Images/63d3f9d0ab6c170778b0d3d1_Image_12.jpeg,liked,3.30081769,,,,,,,,,,,,,
,,,,,,,,,,,,,,,,,,,,,,,,c,0,space,0.591,0,0,0,0,1,1.08,,,
,,,,,,,,,3,,7,,0,29,29,29,1,30,Charlie,Rej,Participant_Images/63d3f9d0ab6c170778b0d3d1/63d3f9d0ab6c170778b0d3d1_Images/63d3f9d0ab6c170778b0d3d1_Image_8.jpeg,did not like,1.661473164,,,,,,,,,,,,,
,,,,,space,2.461,space,1.171,NAN,,NAN,,0,30,30,30,1,31,Alex,Acc,Participant_Images/63d3f9d0ab6c170778b0d3d1/63d3f9d0ab6c170778b0d3d1_Images/63d3f9d0ab6c170778b0d3d1_Image_13.jpeg,liked,3.613205605,,,,,,,,,,,,,
,,,,,,,space,0.59,NAN,,NAN,,0,31,31,31,1,32,Alex,Acc,Participant_Images/63d3f9d0ab6c170778b0d3d1/63d3f9d0ab6c170778b0d3d1_Images/63d3f9d0ab6c170778b0d3d1_Image_26.jpeg,liked,4.988446431,,,,,,,,,,,,,
,,,,,,,space,0.62,NAN,,NAN,,0,32,32,32,1,33,Alex,Acc,Participant_Images/63d3f9d0ab6c170778b0d3d1/63d3f9d0ab6c170778b0d3d1_Images/63d3f9d0ab6c170778b0d3d1_Image_28.jpeg,liked,3.470791822,,,,,,,,,,,,,
,,,,,,,space,0.42,NAN,,NAN,,0,33,33,33,1,34,Alex,Acc,Participant_Images/63d3f9d0ab6c170778b0d3d1/63d3f9d0ab6c170778b0d3d1_Images/63d3f9d0ab6c170778b0d3d1_Image_19.jpeg,liked,3.820572462,,,,,,,,,,,,,
,,,,,,,,,,,,,,,,,,,,,,,,c,0,space,1.501,0,0,0,0,1,0.836,,,
,,,,,,,,,NAN,,NAN,,0,34,34,34,1,35,Alex,Acc,Participant_Images/63d3f9d0ab6c170778b0d3d1/63d3f9d0ab6c170778b0d3d1_Images/63d3f9d0ab6c170778b0d3d1_Image_7.jpeg,liked,2.455989137,,,,,,,,,,,,,
,,,,,,,space,0.653,NAN,,NAN,,0,35,35,35,1,36,Alex,Acc,Participant_Images/63d3f9d0ab6c170778b0d3d1/63d3f9d0ab6c170778b0d3d1_Images/63d3f9d0ab6c170778b0d3d1_Image_6.jpeg,liked,3.79605092,,,,,,,,,,,,,
,,,,,,,space,0.867,NAN,,NAN,,0,36,36,36,1,37,Alex,Acc,Participant_Images/63d3f9d0ab6c170778b0d3d1/63d3f9d0ab6c170778b0d3d1_Images/63d3f9d0ab6c170778b0d3d1_Image_1.jpeg,liked,3.562416326,,,,,,,,,,,,,
,,,,,,,space,0.376,NAN,,NAN,,0,37,37,37,1,38,Alex,Acc,Participant_Images/63d3f9d0ab6c170778b0d3d1/63d3f9d0ab6c170778b0d3d1_Images/63d3f9d0ab6c170778b0d3d1_Image_8.jpeg,liked,2.843822497,,,,,,,,,,,,,
,,,,,,,space,0.654,NAN,,NAN,,0,38,38,38,1,39,Alex,Acc,Participant_Images/63d3f9d0ab6c170778b0d3d1/63d3f9d0ab6c170778b0d3d1_Images/63d3f9d0ab6c170778b0d3d1_Image_18.jpeg,liked,3.546495948,,,,,,,,,,,,,
,,,,,,,,,,,,,,,,,,,,,,,,c,0,space,1.935,0,0,0,0,1,0.77,,,
,,,,,,,,,NAN,,NAN,,0,39,39,39,1,40,Alex,Acc,Participant_Images/63d3f9d0ab6c170778b0d3d1/63d3f9d0ab6c170778b0d3d1_Images/63d3f9d0ab6c170778b0d3d1_Image_10.jpeg,liked,1.672012706,,,,,,,,,,,,,
,,,,,,,space,1.171,NAN,,NAN,,0,40,40,40,1,41,Alex,Acc,Participant_Images/63d3f9d0ab6c170778b0d3d1/63d3f9d0ab6c170778b0d3d1_Images/63d3f9d0ab6c170778b0d3d1_Image_29.jpeg,liked,4.942172136,,,,,,,,,,,,,
,,,,,,,space,0.641,NAN,,NAN,,0,41,41,41,1,42,Alex,Acc,Participant_Images/63d3f9d0ab6c170778b0d3d1/63d3f9d0ab6c170778b0d3d1_Images/63d3f9d0ab6c170778b0d3d1_Image_5.jpeg,did not like,2.50187214,,,,,,,,,,,,,
,,,,,,,space,0.566,NAN,,NAN,,0,42,42,42,1,43,Alex,Acc,Participant_Images/63d3f9d0ab6c170778b0d3d1/63d3f9d0ab6c170778b0d3d1_Images/63d3f9d0ab6c170778b0d3d1_Image_9.jpeg,liked,2.071164779,,,,,,,,,,,,,
,,,,,,,space,0.541,NAN,,NAN,,0,43,43,43,1,44,Alex,Acc,Participant_Images/63d3f9d0ab6c170778b0d3d1/63d3f9d0ab6c170778b0d3d1_Images/63d3f9d0ab6c170778b0d3d1_Image_24.jpeg,did not like,5.336503566,,,,,,,,,,,,,
,,,,,,,,,,,,,,,,,,,,,,,,c,0,space,1.073,0,0,0,0,1,0.818,,,
,,,,,,,,,NAN,,NAN,,0,44,44,44,1,45,Alex,Acc,Participant_Images/63d3f9d0ab6c170778b0d3d1/63d3f9d0ab6c170778b0d3d1_Images/63d3f9d0ab6c170778b0d3d1_Image_30.jpeg,did not like,2.642157193,,,,,,,,,,,,,
,,,,,,,space,0.638,NAN,,NAN,,0,45,45,45,1,46,Alex,Acc,Participant_Images/63d3f9d0ab6c170778b0d3d1/63d3f9d0ab6c170778b0d3d1_Images/63d3f9d0ab6c170778b0d3d1_Image_17.jpeg,liked,4.456234322,,,,,,,,,,,,,
,,,,,,,space,0.854,NAN,,NAN,,0,46,46,46,1,47,Alex,Acc,Participant_Images/63d3f9d0ab6c170778b0d3d1/63d3f9d0ab6c170778b0d3d1_Images/63d3f9d0ab6c170778b0d3d1_Image_21.jpeg,did not like,4.438512181,,,,,,,,,,,,,
,,,,,,,space,0.708,NAN,,NAN,,0,47,47,47,1,48,Alex,Acc,Participant_Images/63d3f9d0ab6c170778b0d3d1/63d3f9d0ab6c170778b0d3d1_Images/63d3f9d0ab6c170778b0d3d1_Image_25.jpeg,did not like,2.682944783,,,,,,,,,,,,,
,,,,,,,space,1.701,NAN,,NAN,,0,48,48,48,1,49,Alex,Acc,Participant_Images/63d3f9d0ab6c170778b0d3d1/63d3f9d0ab6c170778b0d3d1_Images/63d3f9d0ab6c170778b0d3d1_Image_14.jpeg,liked,4.51984296,,,,,,,,,,,,,
,,,,,,,,,,,,,,,,,,,,,,,,c,0,space,2.201,0,0,0,0,1,1.584,,,
,,,,,,,,,NAN,,NAN,,0,49,49,49,1,50,Alex,Acc,Participant_Images/63d3f9d0ab6c170778b0d3d1/63d3f9d0ab6c170778b0d3d1_Images/63d3f9d0ab6c170778b0d3d1_Image_27.jpeg,did not like,3.195382774,,,,,,,,,,,,,
,,,,,,,space,0.85,NAN,,NAN,,0,50,50,50,1,51,Alex,Acc,Participant_Images/63d3f9d0ab6c170778b0d3d1/63d3f9d0ab6c170778b0d3d1_Images/63d3f9d0ab6c170778b0d3d1_Image_12.jpeg,did not like,1.779333479,,,,,,,,,,,,,
,,,,,,,space,1.706,NAN,,NAN,,0,51,51,51,1,52,Alex,Acc,Participant_Images/63d3f9d0ab6c170778b0d3d1/63d3f9d0ab6c170778b0d3d1_Images/63d3f9d0ab6c170778b0d3d1_Image_2.jpeg,did not like,4.312468682,,,,,,,,,,,,,
,,,,,,,space,1.25,NAN,,NAN,,0,52,52,52,1,53,Alex,Acc,Participant_Images/63d3f9d0ab6c170778b0d3d1/63d3f9d0ab6c170778b0d3d1_Images/63d3f9d0ab6c170778b0d3d1_Image_3.jpeg,liked,4.940433059,,,,,,,,,,,,,
,,,,,,,space,0.835,NAN,,NAN,,0,53,53,53,1,54,Alex,Acc,Participant_Images/63d3f9d0ab6c170778b0d3d1/63d3f9d0ab6c170778b0d3d1_Images/63d3f9d0ab6c170778b0d3d1_Image_22.jpeg,liked,2.7105123,,,,,,,,,,,,,
,,,,,,,,,,,,,,,,,,,,,,,,c,0,space,0.721,0,0,0,0,1,1.576,,,
,,,,,,,,,NAN,,NAN,,0,54,54,54,1,55,Alex,Acc,Participant_Images/63d3f9d0ab6c170778b0d3d1/63d3f9d0ab6c170778b0d3d1_Images/63d3f9d0ab6c170778b0d3d1_Image_15.jpeg,liked,3.602308302,,,,,,,,,,,,,
,,,,,,,space,0.543,NAN,,NAN,,0,55,55,55,1,56,Alex,Acc,Participant_Images/63d3f9d0ab6c170778b0d3d1/63d3f9d0ab6c170778b0d3d1_Images/63d3f9d0ab6c170778b0d3d1_Image_11.jpeg,liked,4.106391878,,,,,,,,,,,,,
,,,,,,,space,2.219,NAN,,NAN,,0,56,56,56,1,57,Alex,Acc,Participant_Images/63d3f9d0ab6c170778b0d3d1/63d3f9d0ab6c170778b0d3d1_Images/63d3f9d0ab6c170778b0d3d1_Image_16.jpeg,liked,3.799433026,,,,,,,,,,,,,
,,,,,,,space,0.9,NAN,,NAN,,0,57,57,57,1,58,Alex,Acc,Participant_Images/63d3f9d0ab6c170778b0d3d1/63d3f9d0ab6c170778b0d3d1_Images/63d3f9d0ab6c170778b0d3d1_Image_20.jpeg,did not like,5.246980764,,,,,,,,,,,,,
,,,,,,,space,1.067,NAN,,NAN,,0,58,58,58,1,59,Alex,Acc,Participant_Images/63d3f9d0ab6c170778b0d3d1/63d3f9d0ab6c170778b0d3d1_Images/63d3f9d0ab6c170778b0d3d1_Image_23.jpeg,liked,3.30081769,,,,,,,,,,,,,
,,,,,,,,,,,,,,,,,,,,,,,,c,0,space,1.168,0,0,0,0,1,0.563,,,
,,,,,,,,,4,,8,,0,59,59,59,1,60,Alex,Acc,Participant_Images/63d3f9d0ab6c170778b0d3d1/63d3f9d0ab6c170778b0d3d1_Images/63d3f9d0ab6c170778b0d3d1_Image_4.jpeg,liked,1.661473164,,,,,,,,,,,,,
,,,,,space,2.004,space,0.803,NAN,,NAN,,0,60,60,60,1,61,Riley,Neutral,Participant_Images/63d3f9d0ab6c170778b0d3d1/63d3f9d0ab6c170778b0d3d1_Images/63d3f9d0ab6c170778b0d3d1_Image_10.jpeg,did not like,3.613205605,,,,,,,,,,,,,
,,,,,,,space,2.799,NAN,,NAN,,0,61,61,61,1,62,Riley,Neutral,Participant_Images/63d3f9d0ab6c170778b0d3d1/63d3f9d0ab6c170778b0d3d1_Images/63d3f9d0ab6c170778b0d3d1_Image_25.jpeg,did not like,4.988446431,,,,,,,,,,,,,
,,,,,,,space,1.251,NAN,,NAN,,0,62,62,62,1,63,Riley,Neutral,Participant_Images/63d3f9d0ab6c170778b0d3d1/63d3f9d0ab6c170778b0d3d1_Images/63d3f9d0ab6c170778b0d3d1_Image_18.jpeg,did not like,3.470791822,,,,,,,,,,,,,
,,,,,,,space,0.968,NAN,,NAN,,0,63,63,63,1,64,Riley,Neutral,Participant_Images/63d3f9d0ab6c170778b0d3d1/63d3f9d0ab6c170778b0d3d1_Images/63d3f9d0ab6c170778b0d3d1_Image_8.jpeg,liked,3.820572462,,,,,,,,,,,,,
,,,,,,,,,,,,,,,,,,,,,,,,c,0,space,2.006,0,0,0,0,1,1.33,,,
,,,,,,,,,NAN,,NAN,,0,64,64,64,1,65,Riley,Neutral,Participant_Images/63d3f9d0ab6c170778b0d3d1/63d3f9d0ab6c170778b0d3d1_Images/63d3f9d0ab6c170778b0d3d1_Image_11.jpeg,did not like,2.455989137,,,,,,,,,,,,,
,,,,,,,space,1.24,NAN,,NAN,,0,65,65,65,1,66,Riley,Neutral,Participant_Images/63d3f9d0ab6c170778b0d3d1/63d3f9d0ab6c170778b0d3d1_Images/63d3f9d0ab6c170778b0d3d1_Image_2.jpeg,liked,3.79605092,,,,,,,,,,,,,
,,,,,,,space,0.704,NAN,,NAN,,0,66,66,66,1,67,Riley,Neutral,Participant_Images/63d3f9d0ab6c170778b0d3d1/63d3f9d0ab6c170778b0d3d1_Images/63d3f9d0ab6c170778b0d3d1_Image_26.jpeg,did not like,3.562416326,,,,,,,,,,,,,
,,,,,,,space,0.605,NAN,,NAN,,0,67,67,67,1,68,Riley,Neutral,Participant_Images/63d3f9d0ab6c170778b0d3d1/63d3f9d0ab6c170778b0d3d1_Images/63d3f9d0ab6c170778b0d3d1_Image_3.jpeg,liked,2.843822497,,,,,,,,,,,,,
,,,,,,,space,0.604,NAN,,NAN,,0,68,68,68,1,69,Riley,Neutral,Participant_Images/63d3f9d0ab6c170778b0d3d1/63d3f9d0ab6c170778b0d3d1_Images/63d3f9d0ab6c170778b0d3d1_Image_29.jpeg,did not like,3.546495948,,,,,,,,,,,,,
,,,,,,,,,,,,,,,,,,,,,,,,s,1,space,2.635,0,0,0,0,1,1.097,,,
,,,,,,,,,NAN,,NAN,,0,69,69,69,1,70,Riley,Neutral,Participant_Images/63d3f9d0ab6c170778b0d3d1/63d3f9d0ab6c170778b0d3d1_Images/63d3f9d0ab6c170778b0d3d1_Image_20.jpeg,did not like,1.672012706,,,,,,,,,,,,,
,,,,,,,space,1.306,NAN,,NAN,,0,70,70,70,1,71,Riley,Neutral,Participant_Images/63d3f9d0ab6c170778b0d3d1/63d3f9d0ab6c170778b0d3d1_Images/63d3f9d0ab6c170778b0d3d1_Image_1.jpeg,liked,4.942172136,,,,,,,,,,,,,
,,,,,,,space,0.935,NAN,,NAN,,0,71,71,71,1,72,Riley,Neutral,Participant_Images/63d3f9d0ab6c170778b0d3d1/63d3f9d0ab6c170778b0d3d1_Images/63d3f9d0ab6c170778b0d3d1_Image_28.jpeg,liked,2.50187214,,,,,,,,,,,,,
,,,,,,,space,0.875,NAN,,NAN,,0,72,72,72,1,73,Riley,Neutral,Participant_Images/63d3f9d0ab6c170778b0d3d1/63d3f9d0ab6c170778b0d3d1_Images/63d3f9d0ab6c170778b0d3d1_Image_9.jpeg,did not like,2.071164779,,,,,,,,,,,,,
,,,,,,,space,0.939,NAN,,NAN,,0,73,73,73,1,74,Riley,Neutral,Participant_Images/63d3f9d0ab6c170778b0d3d1/63d3f9d0ab6c170778b0d3d1_Images/63d3f9d0ab6c170778b0d3d1_Image_13.jpeg,liked,5.336503566,,,,,,,,,,,,,
,,,,,,,,,,,,,,,,,,,,,,,,c,0,space,0.768,0,0,0,0,1,0.936,,,
,,,,,,,,,NAN,,NAN,,0,74,74,74,1,75,Riley,Neutral,Participant_Images/63d3f9d0ab6c170778b0d3d1/63d3f9d0ab6c170778b0d3d1_Images/63d3f9d0ab6c170778b0d3d1_Image_19.jpeg,liked,2.642157193,,,,,,,,,,,,,
,,,,,,,space,1.35,NAN,,NAN,,0,75,75,75,1,76,Riley,Neutral,Participant_Images/63d3f9d0ab6c170778b0d3d1/63d3f9d0ab6c170778b0d3d1_Images/63d3f9d0ab6c170778b0d3d1_Image_21.jpeg,did not like,4.456234322,,,,,,,,,,,,,
,,,,,,,space,1.26,NAN,,NAN,,0,76,76,76,1,77,Riley,Neutral,Participant_Images/63d3f9d0ab6c170778b0d3d1/63d3f9d0ab6c170778b0d3d1_Images/63d3f9d0ab6c170778b0d3d1_Image_23.jpeg,did not like,4.438512181,,,,,,,,,,,,,
,,,,,,,space,1.116,NAN,,NAN,,0,77,77,77,1,78,Riley,Neutral,Participant_Images/63d3f9d0ab6c170778b0d3d1/63d3f9d0ab6c170778b0d3d1_Images/63d3f9d0ab6c170778b0d3d1_Image_12.jpeg,did not like,2.682944783,,,,,,,,,,,,,
,,,,,,,space,1.143,NAN,,NAN,,0,78,78,78,1,79,Riley,Neutral,Participant_Images/63d3f9d0ab6c170778b0d3d1/63d3f9d0ab6c170778b0d3d1_Images/63d3f9d0ab6c170778b0d3d1_Image_22.jpeg,did not like,4.51984296,,,,,,,,,,,,,
,,,,,,,,,,,,,,,,,,,,,,,,c,0,space,0.819,0,0,0,0,1,2.297,,,
,,,,,,,,,NAN,,NAN,,0,79,79,79,1,80,Riley,Neutral,Participant_Images/63d3f9d0ab6c170778b0d3d1/63d3f9d0ab6c170778b0d3d1_Images/63d3f9d0ab6c170778b0d3d1_Image_24.jpeg,did not like,3.195382774,,,,,,,,,,,,,
,,,,,,,space,0.869,NAN,,NAN,,0,80,80,80,1,81,Riley,Neutral,Participant_Images/63d3f9d0ab6c170778b0d3d1/63d3f9d0ab6c170778b0d3d1_Images/63d3f9d0ab6c170778b0d3d1_Image_16.jpeg,liked,1.779333479,,,,,,,,,,,,,
,,,,,,,space,0.716,NAN,,NAN,,0,81,81,81,1,82,Riley,Neutral,Participant_Images/63d3f9d0ab6c170778b0d3d1/63d3f9d0ab6c170778b0d3d1_Images/63d3f9d0ab6c170778b0d3d1_Image_27.jpeg,liked,4.312468682,,,,,,,,,,,,,
,,,,,,,space,1.187,NAN,,NAN,,0,82,82,82,1,83,Riley,Neutral,Participant_Images/63d3f9d0ab6c170778b0d3d1/63d3f9d0ab6c170778b0d3d1_Images/63d3f9d0ab6c170778b0d3d1_Image_15.jpeg,liked,4.940433059,,,,,,,,,,,,,
,,,,,,,space,0.636,NAN,,NAN,,0,83,83,83,1,84,Riley,Neutral,Participant_Images/63d3f9d0ab6c170778b0d3d1/63d3f9d0ab6c170778b0d3d1_Images/63d3f9d0ab6c170778b0d3d1_Image_6.jpeg,did not like,2.7105123,,,,,,,,,,,,,
,,,,,,,,,,,,,,,,,,,,,,,,c,0,space,0.667,0,0,0,0,1,0.846,,,
,,,,,,,,,NAN,,NAN,,0,84,84,84,1,85,Riley,Neutral,Participant_Images/63d3f9d0ab6c170778b0d3d1/63d3f9d0ab6c170778b0d3d1_Images/63d3f9d0ab6c170778b0d3d1_Image_14.jpeg,liked,3.602308302,,,,,,,,,,,,,
,,,,,,,space,0.672,NAN,,NAN,,0,85,85,85,1,86,Riley,Neutral,Participant_Images/63d3f9d0ab6c170778b0d3d1/63d3f9d0ab6c170778b0d3d1_Images/63d3f9d0ab6c170778b0d3d1_Image_5.jpeg,liked,4.106391878,,,,,,,,,,,,,
,,,,,,,space,2.101,NAN,,NAN,,0,86,86,86,1,87,Riley,Neutral,Participant_Images/63d3f9d0ab6c170778b0d3d1/63d3f9d0ab6c170778b0d3d1_Images/63d3f9d0ab6c170778b0d3d1_Image_4.jpeg,liked,3.799433026,,,,,,,,,,,,,
,,,,,,,space,1.871,NAN,,NAN,,0,87,87,87,1,88,Riley,Neutral,Participant_Images/63d3f9d0ab6c170778b0d3d1/63d3f9d0ab6c170778b0d3d1_Images/63d3f9d0ab6c170778b0d3d1_Image_30.jpeg,liked,5.246980764,,,,,,,,,,,,,
,,,,,,,space,1.888,NAN,,NAN,,0,88,88,88,1,89,Riley,Neutral,Participant_Images/63d3f9d0ab6c170778b0d3d1/63d3f9d0ab6c170778b0d3d1_Images/63d3f9d0ab6c170778b0d3d1_Image_7.jpeg,liked,3.30081769,,,,,,,,,,,,,
,,,,,,,,,,,,,,,,,,,,,,,,c,0,space,1.251,0,0,0,0,1,0.97,,,
,,,,,,,,,5,,9,,0,89,89,89,1,90,Riley,Neutral,Participant_Images/63d3f9d0ab6c170778b0d3d1/63d3f9d0ab6c170778b0d3d1_Images/63d3f9d0ab6c170778b0d3d1_Image_17.jpeg,did not like,1.661473164,,,,,,,,,,,,,
,,,,,space,1.646,space,1.359,NAN,,NAN,,0,90,90,90,1,91,Sam,Acc,Participant_Images/63d3f9d0ab6c170778b0d3d1/63d3f9d0ab6c170778b0d3d1_Images/63d3f9d0ab6c170778b0d3d1_Image_21.jpeg,liked,3.613205605,,,,,,,,,,,,,
,,,,,,,space,1.807,NAN,,NAN,,0,91,91,91,1,92,Sam,Acc,Participant_Images/63d3f9d0ab6c170778b0d3d1/63d3f9d0ab6c170778b0d3d1_Images/63d3f9d0ab6c170778b0d3d1_Image_28.jpeg,did not like,4.988446431,,,,,,,,,,,,,
,,,,,,,space,0.57,NAN,,NAN,,0,92,92,92,1,93,Sam,Acc,Participant_Images/63d3f9d0ab6c170778b0d3d1/63d3f9d0ab6c170778b0d3d1_Images/63d3f9d0ab6c170778b0d3d1_Image_29.jpeg,liked,3.470791822,,,,,,,,,,,,,
,,,,,,,space,0.857,NAN,,NAN,,0,93,93,93,1,94,Sam,Acc,Participant_Images/63d3f9d0ab6c170778b0d3d1/63d3f9d0ab6c170778b0d3d1_Images/63d3f9d0ab6c170778b0d3d1_Image_30.jpeg,liked,3.820572462,,,,,,,,,,,,,
,,,,,,,,,,,,,,,,,,,,,,,,c,0,space,1.619,0,0,0,0,1,0.899,,,
,,,,,,,,,NAN,,NAN,,0,94,94,94,1,95,Sam,Acc,Participant_Images/63d3f9d0ab6c170778b0d3d1/63d3f9d0ab6c170778b0d3d1_Images/63d3f9d0ab6c170778b0d3d1_Image_9.jpeg,liked,2.455989137,,,,,,,,,,,,,
,,,,,,,space,1.634,NAN,,NAN,,0,95,95,95,1,96,Sam,Acc,Participant_Images/63d3f9d0ab6c170778b0d3d1/63d3f9d0ab6c170778b0d3d1_Images/63d3f9d0ab6c170778b0d3d1_Image_18.jpeg,did not like,3.79605092,,,,,,,,,,,,,
,,,,,,,space,2.152,NAN,,NAN,,0,96,96,96,1,97,Sam,Acc,Participant_Images/63d3f9d0ab6c170778b0d3d1/63d3f9d0ab6c170778b0d3d1_Images/63d3f9d0ab6c170778b0d3d1_Image_20.jpeg,did not like,3.562416326,,,,,,,,,,,,,
,,,,,,,space,0.825,NAN,,NAN,,0,97,97,97,1,98,Sam,Acc,Participant_Images/63d3f9d0ab6c170778b0d3d1/63d3f9d0ab6c170778b0d3d1_Images/63d3f9d0ab6c170778b0d3d1_Image_5.jpeg,liked,2.843822497,,,,,,,,,,,,,
,,,,,,,space,0.687,NAN,,NAN,,0,98,98,98,1,99,Sam,Acc,Participant_Images/63d3f9d0ab6c170778b0d3d1/63d3f9d0ab6c170778b0d3d1_Images/63d3f9d0ab6c170778b0d3d1_Image_16.jpeg,did not like,3.546495948,,,,,,,,,,,,,
,,,,,,,,,,,,,,,,,,,,,,,,c,0,space,0.639,0,0,0,0,1,0.867,,,
,,,,,,,,,NAN,,NAN,,0,99,99,99,1,100,Sam,Acc,Participant_Images/63d3f9d0ab6c170778b0d3d1/63d3f9d0ab6c170778b0d3d1_Images/63d3f9d0ab6c170778b0d3d1_Image_3.jpeg,liked,1.672012706,,,,,,,,,,,,,
,,,,,,,space,0.758,NAN,,NAN,,0,100,100,100,1,101,Sam,Acc,Participant_Images/63d3f9d0ab6c170778b0d3d1/63d3f9d0ab6c170778b0d3d1_Images/63d3f9d0ab6c170778b0d3d1_Image_12.jpeg,did not like,4.942172136,,,,,,,,,,,,,
,,,,,,,space,0.62,NAN,,NAN,,0,101,101,101,1,102,Sam,Acc,Participant_Images/63d3f9d0ab6c170778b0d3d1/63d3f9d0ab6c170778b0d3d1_Images/63d3f9d0ab6c170778b0d3d1_Image_7.jpeg,liked,2.50187214,,,,,,,,,,,,,
,,,,,,,space,0.556,NAN,,NAN,,0,102,102,102,1,103,Sam,Acc,Participant_Images/63d3f9d0ab6c170778b0d3d1/63d3f9d0ab6c170778b0d3d1_Images/63d3f9d0ab6c170778b0d3d1_Image_15.jpeg,liked,2.071164779,,,,,,,,,,,,,
,,,,,,,space,0.503,NAN,,NAN,,0,103,103,103,1,104,Sam,Acc,Participant_Images/63d3f9d0ab6c170778b0d3d1/63d3f9d0ab6c170778b0d3d1_Images/63d3f9d0ab6c170778b0d3d1_Image_4.jpeg,liked,5.336503566,,,,,,,,,,,,,
,,,,,,,,,,,,,,,,,,,,,,,,c,0,space,0.751,0,0,0,0,1,0.731,,,
,,,,,,,,,NAN,,NAN,,0,104,104,104,1,105,Sam,Acc,Participant_Images/63d3f9d0ab6c170778b0d3d1/63d3f9d0ab6c170778b0d3d1_Images/63d3f9d0ab6c170778b0d3d1_Image_17.jpeg,liked,2.642157193,,,,,,,,,,,,,
,,,,,,,space,0.543,NAN,,NAN,,0,105,105,105,1,106,Sam,Acc,Participant_Images/63d3f9d0ab6c170778b0d3d1/63d3f9d0ab6c170778b0d3d1_Images/63d3f9d0ab6c170778b0d3d1_Image_6.jpeg,did not like,4.456234322,,,,,,,,,,,,,
,,,,,,,space,0.674,NAN,,NAN,,0,106,106,106,1,107,Sam,Acc,Participant_Images/63d3f9d0ab6c170778b0d3d1/63d3f9d0ab6c170778b0d3d1_Images/63d3f9d0ab6c170778b0d3d1_Image_1.jpeg,liked,4.438512181,,,,,,,,,,,,,
,,,,,,,space,0.844,NAN,,NAN,,0,107,107,107,1,108,Sam,Acc,Participant_Images/63d3f9d0ab6c170778b0d3d1/63d3f9d0ab6c170778b0d3d1_Images/63d3f9d0ab6c170778b0d3d1_Image_22.jpeg,did not like,2.682944783,,,,,,,,,,,,,
,,,,,,,space,0.95,NAN,,NAN,,0,108,108,108,1,109,Sam,Acc,Participant_Images/63d3f9d0ab6c170778b0d3d1/63d3f9d0ab6c170778b0d3d1_Images/63d3f9d0ab6c170778b0d3d1_Image_26.jpeg,liked,4.51984296,,,,,,,,,,,,,
,,,,,,,,,,,,,,,,,,,,,,,,c,0,space,0.886,0,0,0,0,1,1.134,,,
,,,,,,,,,NAN,,NAN,,0,109,109,109,1,110,Sam,Acc,Participant_Images/63d3f9d0ab6c170778b0d3d1/63d3f9d0ab6c170778b0d3d1_Images/63d3f9d0ab6c170778b0d3d1_Image_8.jpeg,did not like,3.195382774,,,,,,,,,,,,,
,,,,,,,space,0.741,NAN,,NAN,,0,110,110,110,1,111,Sam,Acc,Participant_Images/63d3f9d0ab6c170778b0d3d1/63d3f9d0ab6c170778b0d3d1_Images/63d3f9d0ab6c170778b0d3d1_Image_14.jpeg,liked,1.779333479,,,,,,,,,,,,,
,,,,,,,space,0.768,NAN,,NAN,,0,111,111,111,1,112,Sam,Acc,Participant_Images/63d3f9d0ab6c170778b0d3d1/63d3f9d0ab6c170778b0d3d1_Images/63d3f9d0ab6c170778b0d3d1_Image_13.jpeg,liked,4.312468682,,,,,,,,,,,,,
,,,,,,,space,0.837,NAN,,NAN,,0,112,112,112,1,113,Sam,Acc,Participant_Images/63d3f9d0ab6c170778b0d3d1/63d3f9d0ab6c170778b0d3d1_Images/63d3f9d0ab6c170778b0d3d1_Image_27.jpeg,liked,4.940433059,,,,,,,,,,,,,
,,,,,,,space,0.771,NAN,,NAN,,0,113,113,113,1,114,Sam,Acc,Participant_Images/63d3f9d0ab6c170778b0d3d1/63d3f9d0ab6c170778b0d3d1_Images/63d3f9d0ab6c170778b0d3d1_Image_11.jpeg,liked,2.7105123,,,,,,,,,,,,,
,,,,,,,,,,,,,,,,,,,,,,,,c,0,space,0.685,0,0,0,0,1,1.73,,,
,,,,,,,,,NAN,,NAN,,0,114,114,114,1,115,Sam,Acc,Participant_Images/63d3f9d0ab6c170778b0d3d1/63d3f9d0ab6c170778b0d3d1_Images/63d3f9d0ab6c170778b0d3d1_Image_24.jpeg,liked,3.602308302,,,,,,,,,,,,,
,,,,,,,space,0.77,NAN,,NAN,,0,115,115,115,1,116,Sam,Acc,Participant_Images/63d3f9d0ab6c170778b0d3d1/63d3f9d0ab6c170778b0d3d1_Images/63d3f9d0ab6c170778b0d3d1_Image_10.jpeg,liked,4.106391878,,,,,,,,,,,,,
,,,,,,,space,0.541,NAN,,NAN,,0,116,116,116,1,117,Sam,Acc,Participant_Images/63d3f9d0ab6c170778b0d3d1/63d3f9d0ab6c170778b0d3d1_Images/63d3f9d0ab6c170778b0d3d1_Image_23.jpeg,liked,3.799433026,,,,,,,,,,,,,
,,,,,,,space,0.888,NAN,,NAN,,0,117,117,117,1,118,Sam,Acc,Participant_Images/63d3f9d0ab6c170778b0d3d1/63d3f9d0ab6c170778b0d3d1_Images/63d3f9d0ab6c170778b0d3d1_Image_25.jpeg,liked,5.246980764,,,,,,,,,,,,,
,,,,,,,space,0.95,NAN,,NAN,,0,118,118,118,1,119,Sam,Acc,Participant_Images/63d3f9d0ab6c170778b0d3d1/63d3f9d0ab6c170778b0d3d1_Images/63d3f9d0ab6c170778b0d3d1_Image_19.jpeg,did not like,3.30081769,,,,,,,,,,,,,
,,,,,,,,,,,,,,,,,,,,,,,,c,0,space,1.285,0,0,0,0,1,0.685,,,
,,,,,,,,,5,,9,,0,119,119,119,1,120,Sam,Acc,Participant_Images/63d3f9d0ab6c170778b0d3d1/63d3f9d0ab6c170778b0d3d1_Images/63d3f9d0ab6c170778b0d3d1_Image_2.jpeg,liked,1.661473164,,,,,,,,,,,,,
,,,,,space,2.45,space,4.069,NAN,,NAN,,0,120,120,120,1,121,Taylor,Rej,Participant_Images/63d3f9d0ab6c170778b0d3d1/63d3f9d0ab6c170778b0d3d1_Images/63d3f9d0ab6c170778b0d3d1_Image_7.jpeg,did not like,3.613205605,,,,,,,,,,,,,
,,,,,,,space,1.668,NAN,,NAN,,0,121,121,121,1,122,Taylor,Rej,Participant_Images/63d3f9d0ab6c170778b0d3d1/63d3f9d0ab6c170778b0d3d1_Images/63d3f9d0ab6c170778b0d3d1_Image_9.jpeg,liked,4.988446431,,,,,,,,,,,,,
,,,,,,,space,6.47,NAN,,NAN,,0,122,122,122,1,123,Taylor,Rej,Participant_Images/63d3f9d0ab6c170778b0d3d1/63d3f9d0ab6c170778b0d3d1_Images/63d3f9d0ab6c170778b0d3d1_Image_14.jpeg,did not like,3.470791822,,,,,,,,,,,,,
,,,,,,,space,1.987,NAN,,NAN,,0,123,123,123,1,124,Taylor,Rej,Participant_Images/63d3f9d0ab6c170778b0d3d1/63d3f9d0ab6c170778b0d3d1_Images/63d3f9d0ab6c170778b0d3d1_Image_27.jpeg,liked,3.820572462,,,,,,,,,,,,,
,,,,,,,,,,,,,,,,,,,,,,,,c,0,space,1.218,0,0,0,0,1,3.612,,,
,,,,,,,,,NAN,,NAN,,0,124,124,124,1,125,Taylor,Rej,Participant_Images/63d3f9d0ab6c170778b0d3d1/63d3f9d0ab6c170778b0d3d1_Images/63d3f9d0ab6c170778b0d3d1_Image_1.jpeg,did not like,2.455989137,,,,,,,,,,,,,
,,,,,,,space,1.267,NAN,,NAN,,0,125,125,125,1,126,Taylor,Rej,Participant_Images/63d3f9d0ab6c170778b0d3d1/63d3f9d0ab6c170778b0d3d1_Images/63d3f9d0ab6c170778b0d3d1_Image_11.jpeg,did not like,3.79605092,,,,,,,,,,,,,
,,,,,,,space,1.56,NAN,,NAN,,0,126,126,126,1,127,Taylor,Rej,Participant_Images/63d3f9d0ab6c170778b0d3d1/63d3f9d0ab6c170778b0d3d1_Images/63d3f9d0ab6c170778b0d3d1_Image_10.jpeg,did not like,3.562416326,,,,,,,,,,,,,
,,,,,,,space,1.303,NAN,,NAN,,0,127,127,127,1,128,Taylor,Rej,Participant_Images/63d3f9d0ab6c170778b0d3d1/63d3f9d0ab6c170778b0d3d1_Images/63d3f9d0ab6c170778b0d3d1_Image_13.jpeg,liked,2.843822497,,,,,,,,,,,,,
,,,,,,,space,0.553,NAN,,NAN,,0,128,128,128,1,129,Taylor,Rej,Participant_Images/63d3f9d0ab6c170778b0d3d1/63d3f9d0ab6c170778b0d3d1_Images/63d3f9d0ab6c170778b0d3d1_Image_26.jpeg,did not like,3.546495948,,,,,,,,,,,,,
,,,,,,,,,,,,,,,,,,,,,,,,c,0,space,1.635,0,0,0,0,1,1.198,,,
,,,,,,,,,NAN,,NAN,,0,129,129,129,1,130,Taylor,Rej,Participant_Images/63d3f9d0ab6c170778b0d3d1/63d3f9d0ab6c170778b0d3d1_Images/63d3f9d0ab6c170778b0d3d1_Image_17.jpeg,did not like,1.672012706,,,,,,,,,,,,,
,,,,,,,space,1.386,NAN,,NAN,,0,130,130,130,1,131,Taylor,Rej,Participant_Images/63d3f9d0ab6c170778b0d3d1/63d3f9d0ab6c170778b0d3d1_Images/63d3f9d0ab6c170778b0d3d1_Image_4.jpeg,did not like,4.942172136,,,,,,,,,,,,,
,,,,,,,space,1.27,NAN,,NAN,,0,131,131,131,1,132,Taylor,Rej,Participant_Images/63d3f9d0ab6c170778b0d3d1/63d3f9d0ab6c170778b0d3d1_Images/63d3f9d0ab6c170778b0d3d1_Image_22.jpeg,did not like,2.50187214,,,,,,,,,,,,,
,,,,,,,space,0.838,NAN,,NAN,,0,132,132,132,1,133,Taylor,Rej,Participant_Images/63d3f9d0ab6c170778b0d3d1/63d3f9d0ab6c170778b0d3d1_Images/63d3f9d0ab6c170778b0d3d1_Image_29.jpeg,did not like,2.071164779,,,,,,,,,,,,,
,,,,,,,space,1.184,NAN,,NAN,,0,133,133,133,1,134,Taylor,Rej,Participant_Images/63d3f9d0ab6c170778b0d3d1/63d3f9d0ab6c170778b0d3d1_Images/63d3f9d0ab6c170778b0d3d1_Image_2.jpeg,liked,5.336503566,,,,,,,,,,,,,
,,,,,,,,,,,,,,,,,,,,,,,,c,0,space,1.583,0,0,0,0,1,1.312,,,
,,,,,,,,,NAN,,NAN,,0,134,134,134,1,135,Taylor,Rej,Participant_Images/63d3f9d0ab6c170778b0d3d1/63d3f9d0ab6c170778b0d3d1_Images/63d3f9d0ab6c170778b0d3d1_Image_20.jpeg,did not like,2.642157193,,,,,,,,,,,,,
,,,,,,,space,1.236,NAN,,NAN,,0,135,135,135,1,136,Taylor,Rej,Participant_Images/63d3f9d0ab6c170778b0d3d1/63d3f9d0ab6c170778b0d3d1_Images/63d3f9d0ab6c170778b0d3d1_Image_8.jpeg,liked,4.456234322,,,,,,,,,,,,,
,,,,,,,space,1.127,NAN,,NAN,,0,136,136,136,1,137,Taylor,Rej,Participant_Images/63d3f9d0ab6c170778b0d3d1/63d3f9d0ab6c170778b0d3d1_Images/63d3f9d0ab6c170778b0d3d1_Image_19.jpeg,did not like,4.438512181,,,,,,,,,,,,,
,,,,,,,space,1.254,NAN,,NAN,,0,137,137,137,1,138,Taylor,Rej,Participant_Images/63d3f9d0ab6c170778b0d3d1/63d3f9d0ab6c170778b0d3d1_Images/63d3f9d0ab6c170778b0d3d1_Image_6.jpeg,did not like,2.682944783,,,,,,,,,,,,,
,,,,,,,space,0.924,NAN,,NAN,,0,138,138,138,1,139,Taylor,Rej,Participant_Images/63d3f9d0ab6c170778b0d3d1/63d3f9d0ab6c170778b0d3d1_Images/63d3f9d0ab6c170778b0d3d1_Image_28.jpeg,did not like,4.51984296,,,,,,,,,,,,,
,,,,,,,,,,,,,,,,,,,,,,,,c,0,space,1.035,0,0,0,0,1,1.731,,,
,,,,,,,,,NAN,,NAN,,0,139,139,139,1,140,Taylor,Rej,Participant_Images/63d3f9d0ab6c170778b0d3d1/63d3f9d0ab6c170778b0d3d1_Images/63d3f9d0ab6c170778b0d3d1_Image_24.jpeg,liked,3.195382774,,,,,,,,,,,,,
,,,,,,,space,2.003,NAN,,NAN,,0,140,140,140,1,141,Taylor,Rej,Participant_Images/63d3f9d0ab6c170778b0d3d1/63d3f9d0ab6c170778b0d3d1_Images/63d3f9d0ab6c170778b0d3d1_Image_25.jpeg,liked,1.779333479,,,,,,,,,,,,,
,,,,,,,space,1.137,NAN,,NAN,,0,141,141,141,1,142,Taylor,Rej,Participant_Images/63d3f9d0ab6c170778b0d3d1/63d3f9d0ab6c170778b0d3d1_Images/63d3f9d0ab6c170778b0d3d1_Image_15.jpeg,did not like,4.312468682,,,,,,,,,,,,,
,,,,,,,space,1.234,NAN,,NAN,,0,142,142,142,1,143,Taylor,Rej,Participant_Images/63d3f9d0ab6c170778b0d3d1/63d3f9d0ab6c170778b0d3d1_Images/63d3f9d0ab6c170778b0d3d1_Image_18.jpeg,did not like,4.940433059,,,,,,,,,,,,,
,,,,,,,space,1.285,NAN,,NAN,,0,143,143,143,1,144,Taylor,Rej,Participant_Images/63d3f9d0ab6c170778b0d3d1/63d3f9d0ab6c170778b0d3d1_Images/63d3f9d0ab6c170778b0d3d1_Image_30.jpeg,liked,2.7105123,,,,,,,,,,,,,
,,,,,,,,,,,,,,,,,,,,,,,,c,0,space,1.25,0,0,0,0,1,1.166,,,
,,,,,,,,,NAN,,NAN,,0,144,144,144,1,145,Taylor,Rej,Participant_Images/63d3f9d0ab6c170778b0d3d1/63d3f9d0ab6c170778b0d3d1_Images/63d3f9d0ab6c170778b0d3d1_Image_12.jpeg,did not like,3.602308302,,,,,,,,,,,,,
,,,,,,,space,1.003,NAN,,NAN,,0,145,145,145,1,146,Taylor,Rej,Participant_Images/63d3f9d0ab6c170778b0d3d1/63d3f9d0ab6c170778b0d3d1_Images/63d3f9d0ab6c170778b0d3d1_Image_16.jpeg,did not like,4.106391878,,,,,,,,,,,,,
,,,,,,,space,1.02,NAN,,NAN,,0,146,146,146,1,147,Taylor,Rej,Participant_Images/63d3f9d0ab6c170778b0d3d1/63d3f9d0ab6c170778b0d3d1_Images/63d3f9d0ab6c170778b0d3d1_Image_3.jpeg,did not like,3.799433026,,,,,,,,,,,,,
,,,,,,,space,1.21,NAN,,NAN,,0,147,147,147,1,148,Taylor,Rej,Participant_Images/63d3f9d0ab6c170778b0d3d1/63d3f9d0ab6c170778b0d3d1_Images/63d3f9d0ab6c170778b0d3d1_Image_21.jpeg,did not like,5.246980764,,,,,,,,,,,,,
,,,,,,,space,1.152,NAN,,NAN,,0,148,148,148,1,149,Taylor,Rej,Participant_Images/63d3f9d0ab6c170778b0d3d1/63d3f9d0ab6c170778b0d3d1_Images/63d3f9d0ab6c170778b0d3d1_Image_5.jpeg,did not like,3.30081769,,,,,,,,,,,,,
,,,,,,,,,,,,,,,,,,,,,,,,c,0,space,1.819,0,0,0,0,1,1.696,,,
,,,,,,,,,5,,9,,0,149,149,149,1,150,Taylor,Rej,Participant_Images/63d3f9d0ab6c170778b0d3d1/63d3f9d0ab6c170778b0d3d1_Images/63d3f9d0ab6c170778b0d3d1_Image_23.jpeg,liked,1.661473164,,,,,,,,,,,,,
,,,,,,,,,,,,,,,,,,,,,,,,,,,,,,,,,,,space,4.979
