PROLIFIC_ID,endwelcomescreen_keys.keys,endwelcomescreen_keys.rt,endinstructionscreen_keys.keys,endinstructionscreen_keys.rt,endpartnermatch_keys.keys,endpartnermatch_keys.rt,sharenextphoto_key.keys,sharenextphoto_key.rt,salience_rating,key_resp.keys,stress_level,stresslevel_keypress.keys,entiretaskloop.thisRepN,entiretaskloop.thisTrialN,entiretaskloop.thisN,entiretaskloop.thisIndex,entiretaskloop.ran,TrialNumber,Partner,Condition,Photos,Feedback,FeedbackWait,choice_keys.keys,playlottery,resumeafterlottery_keys.keys,resumeafterlottery_keys.rt,lotteryloop.thisRepN,lotteryloop.thisTrialN,lotteryloop.thisN,lotteryloop.thisIndex,lotteryloop.ran,choice_keys.rt,lotteryguess_keys.keys,end_screen_keys.keys,end_screen_keys.rt
63d40481d12fc9cc4c1adab0,space,2296.1961,,,,,,,,,,,,,,,,,,,,,,,,,,,,,,,,,,
,,,,,,,,,,,,,,,,,,,,,,,,,,,,,,,,,,,,
,,,space,9.2329,,,,,,,,,,,,,,,,,,,,,,,,,,,,,,,,
,,,,,space,2.9348,space,4.6683,NAN,,NAN,,0,0,0,0,1,1,Riley,Neutral,Participant_Images/63d40481d12fc9cc4c1adab0/63d40481d12fc9cc4c1adab0_Images/63d40481d12fc9cc4c1adab0_Image_22.jpeg,liked,3.613205605,,,,,,,,,,,,,
,,,,,,,space,4.9346,NAN,,NAN,,0,1,1,1,1,2,Riley,Neutral,Participant_Images/63d40481d12fc9cc4c1adab0/63d40481d12fc9cc4c1adab0_Images/63d40481d12fc9cc4c1adab0_Image_29.jpeg,did not like,4.988446431,,,,,,,,,,,,,
,,,,,,,space,5.7028,NAN,,NAN,,0,2,2,2,1,3,Riley,Neutral,Participant_Images/63d40481d12fc9cc4c1adab0/63d40481d12fc9cc4c1adab0_Images/63d40481d12fc9cc4c1adab0_Image_19.jpeg,liked,3.470791822,,,,,,,,,,,,,
,,,,,,,space,2.052,NAN,,NAN,,0,3,3,3,1,4,Riley,Neutral,Participant_Images/63d40481d12fc9cc4c1adab0/63d40481d12fc9cc4c1adab0_Images/63d40481d12fc9cc4c1adab0_Image_27.jpeg,did not like,3.820572462,,,,,,,,,,,,,
,,,,,,,,,,,,,,,,,,,,,,,,,999,space,4.8106,0,0,0,0,1,,,,
,,,,,,,,,NAN,,NAN,,0,4,4,4,1,5,Riley,Neutral,Participant_Images/63d40481d12fc9cc4c1adab0/63d40481d12fc9cc4c1adab0_Images/63d40481d12fc9cc4c1adab0_Image_8.jpeg,did not like,2.455989137,,,,,,,,,,,,,
,,,,,,,space,1.242,NAN,,NAN,,0,5,5,5,1,6,Riley,Neutral,Participant_Images/63d40481d12fc9cc4c1adab0/63d40481d12fc9cc4c1adab0_Images/63d40481d12fc9cc4c1adab0_Image_26.jpeg,liked,3.79605092,,,,,,,,,,,,,
,,,,,,,space,0.9845,NAN,,NAN,,0,6,6,6,1,7,Riley,Neutral,Participant_Images/63d40481d12fc9cc4c1adab0/63d40481d12fc9cc4c1adab0_Images/63d40481d12fc9cc4c1adab0_Image_13.jpeg,liked,3.562416326,,,,,,,,,,,,,
,,,,,,,space,1.1034,NAN,,NAN,,0,7,7,7,1,8,Riley,Neutral,Participant_Images/63d40481d12fc9cc4c1adab0/63d40481d12fc9cc4c1adab0_Images/63d40481d12fc9cc4c1adab0_Image_7.jpeg,liked,2.843822497,,,,,,,,,,,,,
,,,,,,,space,0.9686,NAN,,NAN,,0,8,8,8,1,9,Riley,Neutral,Participant_Images/63d40481d12fc9cc4c1adab0/63d40481d12fc9cc4c1adab0_Images/63d40481d12fc9cc4c1adab0_Image_24.jpeg,did not like,3.546495948,,,,,,,,,,,,,
,,,,,,,,,,,,,,,,,,,,,,,,c,0,space,1.59,0,0,0,0,1,0.6402,,,
,,,,,,,,,NAN,,NAN,,0,9,9,9,1,10,Riley,Neutral,Participant_Images/63d40481d12fc9cc4c1adab0/63d40481d12fc9cc4c1adab0_Images/63d40481d12fc9cc4c1adab0_Image_6.jpeg,liked,1.672012706,,,,,,,,,,,,,
,,,,,,,space,3.3436,NAN,,NAN,,0,10,10,10,1,11,Riley,Neutral,Participant_Images/63d40481d12fc9cc4c1adab0/63d40481d12fc9cc4c1adab0_Images/63d40481d12fc9cc4c1adab0_Image_16.jpeg,did not like,4.942172136,,,,,,,,,,,,,
,,,,,,,space,7.2433,NAN,,NAN,,0,11,11,11,1,12,Riley,Neutral,Participant_Images/63d40481d12fc9cc4c1adab0/63d40481d12fc9cc4c1adab0_Images/63d40481d12fc9cc4c1adab0_Image_12.jpeg,liked,2.50187214,,,,,,,,,,,,,
,,,,,,,space,5.0515,NAN,,NAN,,0,12,12,12,1,13,Riley,Neutral,Participant_Images/63d40481d12fc9cc4c1adab0/63d40481d12fc9cc4c1adab0_Images/63d40481d12fc9cc4c1adab0_Image_4.jpeg,did not like,2.071164779,,,,,,,,,,,,,
,,,,,,,space,1.5857,NAN,,NAN,,0,13,13,13,1,14,Riley,Neutral,Participant_Images/63d40481d12fc9cc4c1adab0/63d40481d12fc9cc4c1adab0_Images/63d40481d12fc9cc4c1adab0_Image_11.jpeg,did not like,5.336503566,,,,,,,,,,,,,
,,,,,,,,,,,,,,,,,,,,,,,,s,1,space,1.1091,0,0,0,0,1,0.8164,,,
,,,,,,,,,NAN,,NAN,,0,14,14,14,1,15,Riley,Neutral,Participant_Images/63d40481d12fc9cc4c1adab0/63d40481d12fc9cc4c1adab0_Images/63d40481d12fc9cc4c1adab0_Image_1.jpeg,did not like,2.642157193,,,,,,,,,,,,,
,,,,,,,space,1.3023,NAN,,NAN,,0,15,15,15,1,16,Riley,Neutral,Participant_Images/63d40481d12fc9cc4c1adab0/63d40481d12fc9cc4c1adab0_Images/63d40481d12fc9cc4c1adab0_Image_23.jpeg,did not like,4.456234322,,,,,,,,,,,,,
,,,,,,,space,2.3046,NAN,,NAN,,0,16,16,16,1,17,Riley,Neutral,Participant_Images/63d40481d12fc9cc4c1adab0/63d40481d12fc9cc4c1adab0_Images/63d40481d12fc9cc4c1adab0_Image_15.jpeg,liked,4.438512181,,,,,,,,,,,,,
,,,,,,,space,5.1355,NAN,,NAN,,0,17,17,17,1,18,Riley,Neutral,Participant_Images/63d40481d12fc9cc4c1adab0/63d40481d12fc9cc4c1adab0_Images/63d40481d12fc9cc4c1adab0_Image_2.jpeg,liked,2.682944783,,,,,,,,,,,,,
,,,,,,,space,1.7475,NAN,,NAN,,0,18,18,18,1,19,Riley,Neutral,Participant_Images/63d40481d12fc9cc4c1adab0/63d40481d12fc9cc4c1adab0_Images/63d40481d12fc9cc4c1adab0_Image_20.jpeg,did not like,4.51984296,,,,,,,,,,,,,
,,,,,,,,,,,,,,,,,,,,,,,,c,0,space,1.1163,0,0,0,0,1,0.8003,,,
,,,,,,,,,NAN,,NAN,,0,19,19,19,1,20,Riley,Neutral,Participant_Images/63d40481d12fc9cc4c1adab0/63d40481d12fc9cc4c1adab0_Images/63d40481d12fc9cc4c1adab0_Image_5.jpeg,did not like,3.195382774,,,,,,,,,,,,,
,,,,,,,space,1.4817,NAN,,NAN,,0,20,20,20,1,21,Riley,Neutral,Participant_Images/63d40481d12fc9cc4c1adab0/63d40481d12fc9cc4c1adab0_Images/63d40481d12fc9cc4c1adab0_Image_18.jpeg,liked,1.779333479,,,,,,,,,,,,,
,,,,,,,space,0.9146,NAN,,NAN,,0,21,21,21,1,22,Riley,Neutral,Participant_Images/63d40481d12fc9cc4c1adab0/63d40481d12fc9cc4c1adab0_Images/63d40481d12fc9cc4c1adab0_Image_28.jpeg,liked,4.312468682,,,,,,,,,,,,,
,,,,,,,space,0.6981,NAN,,NAN,,0,22,22,22,1,23,Riley,Neutral,Participant_Images/63d40481d12fc9cc4c1adab0/63d40481d12fc9cc4c1adab0_Images/63d40481d12fc9cc4c1adab0_Image_9.jpeg,did not like,4.940433059,,,,,,,,,,,,,
,,,,,,,space,0.7643,NAN,,NAN,,0,23,23,23,1,24,Riley,Neutral,Participant_Images/63d40481d12fc9cc4c1adab0/63d40481d12fc9cc4c1adab0_Images/63d40481d12fc9cc4c1adab0_Image_3.jpeg,liked,2.7105123,,,,,,,,,,,,,
,,,,,,,,,,,,,,,,,,,,,,,,c,0,space,1.3363,0,0,0,0,1,0.9841,,,
,,,,,,,,,NAN,,NAN,,0,24,24,24,1,25,Riley,Neutral,Participant_Images/63d40481d12fc9cc4c1adab0/63d40481d12fc9cc4c1adab0_Images/63d40481d12fc9cc4c1adab0_Image_30.jpeg,liked,3.602308302,,,,,,,,,,,,,
,,,,,,,space,1.3302,NAN,,NAN,,0,25,25,25,1,26,Riley,Neutral,Participant_Images/63d40481d12fc9cc4c1adab0/63d40481d12fc9cc4c1adab0_Images/63d40481d12fc9cc4c1adab0_Image_10.jpeg,liked,4.106391878,,,,,,,,,,,,,
,,,,,,,space,1.4642,NAN,,NAN,,0,26,26,26,1,27,Riley,Neutral,Participant_Images/63d40481d12fc9cc4c1adab0/63d40481d12fc9cc4c1adab0_Images/63d40481d12fc9cc4c1adab0_Image_17.jpeg,liked,3.799433026,,,,,,,,,,,,,
,,,,,,,space,1.0311,NAN,,NAN,,0,27,27,27,1,28,Riley,Neutral,Participant_Images/63d40481d12fc9cc4c1adab0/63d40481d12fc9cc4c1adab0_Images/63d40481d12fc9cc4c1adab0_Image_14.jpeg,did not like,5.246980764,,,,,,,,,,,,,
,,,,,,,space,0.9481,NAN,,NAN,,0,28,28,28,1,29,Riley,Neutral,Participant_Images/63d40481d12fc9cc4c1adab0/63d40481d12fc9cc4c1adab0_Images/63d40481d12fc9cc4c1adab0_Image_25.jpeg,did not like,3.30081769,,,,,,,,,,,,,
,,,,,,,,,,,,,,,,,,,,,,,,c,0,space,0.7667,0,0,0,0,1,0.7344,,,
,,,,,,,,,2,,4,,0,29,29,29,1,30,Riley,Neutral,Participant_Images/63d40481d12fc9cc4c1adab0/63d40481d12fc9cc4c1adab0_Images/63d40481d12fc9cc4c1adab0_Image_21.jpeg,did not like,1.661473164,,,,,,,,,,,,,
,,,,,space,1.6454,space,2.25,NAN,,NAN,,0,30,30,30,1,31,Taylor,Rej,Participant_Images/63d40481d12fc9cc4c1adab0/63d40481d12fc9cc4c1adab0_Images/63d40481d12fc9cc4c1adab0_Image_3.jpeg,did not like,3.613205605,,,,,,,,,,,,,
,,,,,,,space,2.7642,NAN,,NAN,,0,31,31,31,1,32,Taylor,Rej,Participant_Images/63d40481d12fc9cc4c1adab0/63d40481d12fc9cc4c1adab0_Images/63d40481d12fc9cc4c1adab0_Image_13.jpeg,did not like,4.988446431,,,,,,,,,,,,,
,,,,,,,space,11.0817,NAN,,NAN,,0,32,32,32,1,33,Taylor,Rej,Participant_Images/63d40481d12fc9cc4c1adab0/63d40481d12fc9cc4c1adab0_Images/63d40481d12fc9cc4c1adab0_Image_7.jpeg,did not like,3.470791822,,,,,,,,,,,,,
,,,,,,,space,0.9309,NAN,,NAN,,0,33,33,33,1,34,Taylor,Rej,Participant_Images/63d40481d12fc9cc4c1adab0/63d40481d12fc9cc4c1adab0_Images/63d40481d12fc9cc4c1adab0_Image_19.jpeg,liked,3.820572462,,,,,,,,,,,,,
,,,,,,,,,,,,,,,,,,,,,,,,c,0,space,8.8184,0,0,0,0,1,0.7181,,,
,,,,,,,,,NAN,,NAN,,0,34,34,34,1,35,Taylor,Rej,Participant_Images/63d40481d12fc9cc4c1adab0/63d40481d12fc9cc4c1adab0_Images/63d40481d12fc9cc4c1adab0_Image_25.jpeg,did not like,2.455989137,,,,,,,,,,,,,
,,,,,,,space,7.8647,NAN,,NAN,,0,35,35,35,1,36,Taylor,Rej,Participant_Images/63d40481d12fc9cc4c1adab0/63d40481d12fc9cc4c1adab0_Images/63d40481d12fc9cc4c1adab0_Image_22.jpeg,liked,3.79605092,,,,,,,,,,,,,
,,,,,,,space,4.6475,NAN,,NAN,,0,36,36,36,1,37,Taylor,Rej,Participant_Images/63d40481d12fc9cc4c1adab0/63d40481d12fc9cc4c1adab0_Images/63d40481d12fc9cc4c1adab0_Image_6.jpeg,did not like,3.562416326,,,,,,,,,,,,,
,,,,,,,space,1.249,NAN,,NAN,,0,37,37,37,1,38,Taylor,Rej,Participant_Images/63d40481d12fc9cc4c1adab0/63d40481d12fc9cc4c1adab0_Images/63d40481d12fc9cc4c1adab0_Image_16.jpeg,did not like,2.843822497,,,,,,,,,,,,,
,,,,,,,space,2.7834,NAN,,NAN,,0,38,38,38,1,39,Taylor,Rej,Participant_Images/63d40481d12fc9cc4c1adab0/63d40481d12fc9cc4c1adab0_Images/63d40481d12fc9cc4c1adab0_Image_23.jpeg,did not like,3.546495948,,,,,,,,,,,,,
,,,,,,,,,,,,,,,,,,,,,,,,c,0,space,2.535,0,0,0,0,1,1.0838,,,
,,,,,,,,,NAN,,NAN,,0,39,39,39,1,40,Taylor,Rej,Participant_Images/63d40481d12fc9cc4c1adab0/63d40481d12fc9cc4c1adab0_Images/63d40481d12fc9cc4c1adab0_Image_27.jpeg,did not like,1.672012706,,,,,,,,,,,,,
,,,,,,,space,0.8809,NAN,,NAN,,0,40,40,40,1,41,Taylor,Rej,Participant_Images/63d40481d12fc9cc4c1adab0/63d40481d12fc9cc4c1adab0_Images/63d40481d12fc9cc4c1adab0_Image_26.jpeg,did not like,4.942172136,,,,,,,,,,,,,
,,,,,,,space,0.8984,NAN,,NAN,,0,41,41,41,1,42,Taylor,Rej,Participant_Images/63d40481d12fc9cc4c1adab0/63d40481d12fc9cc4c1adab0_Images/63d40481d12fc9cc4c1adab0_Image_29.jpeg,did not like,2.50187214,,,,,,,,,,,,,
,,,,,,,space,0.6464,NAN,,NAN,,0,42,42,42,1,43,Taylor,Rej,Participant_Images/63d40481d12fc9cc4c1adab0/63d40481d12fc9cc4c1adab0_Images/63d40481d12fc9cc4c1adab0_Image_24.jpeg,did not like,2.071164779,,,,,,,,,,,,,
,,,,,,,space,5.0813,NAN,,NAN,,0,43,43,43,1,44,Taylor,Rej,Participant_Images/63d40481d12fc9cc4c1adab0/63d40481d12fc9cc4c1adab0_Images/63d40481d12fc9cc4c1adab0_Image_10.jpeg,did not like,5.336503566,,,,,,,,,,,,,
,,,,,,,,,,,,,,,,,,,,,,,,c,0,space,1.3187,0,0,0,0,1,0.8178,,,
,,,,,,,,,NAN,,NAN,,0,44,44,44,1,45,Taylor,Rej,Participant_Images/63d40481d12fc9cc4c1adab0/63d40481d12fc9cc4c1adab0_Images/63d40481d12fc9cc4c1adab0_Image_30.jpeg,did not like,2.642157193,,,,,,,,,,,,,
,,,,,,,space,8.5654,NAN,,NAN,,0,45,45,45,1,46,Taylor,Rej,Participant_Images/63d40481d12fc9cc4c1adab0/63d40481d12fc9cc4c1adab0_Images/63d40481d12fc9cc4c1adab0_Image_12.jpeg,did not like,4.456234322,,,,,,,,,,,,,
,,,,,,,space,2.7153,NAN,,NAN,,0,46,46,46,1,47,Taylor,Rej,Participant_Images/63d40481d12fc9cc4c1adab0/63d40481d12fc9cc4c1adab0_Images/63d40481d12fc9cc4c1adab0_Image_2.jpeg,did not like,4.438512181,,,,,,,,,,,,,
,,,,,,,space,0.7797,NAN,,NAN,,0,47,47,47,1,48,Taylor,Rej,Participant_Images/63d40481d12fc9cc4c1adab0/63d40481d12fc9cc4c1adab0_Images/63d40481d12fc9cc4c1adab0_Image_18.jpeg,did not like,2.682944783,,,,,,,,,,,,,
,,,,,,,space,1.9978,NAN,,NAN,,0,48,48,48,1,49,Taylor,Rej,Participant_Images/63d40481d12fc9cc4c1adab0/63d40481d12fc9cc4c1adab0_Images/63d40481d12fc9cc4c1adab0_Image_28.jpeg,liked,4.51984296,,,,,,,,,,,,,
,,,,,,,,,,,,,,,,,,,,,,,,c,0,space,0.5836,0,0,0,0,1,0.6843,,,
,,,,,,,,,NAN,,NAN,,0,49,49,49,1,50,Taylor,Rej,Participant_Images/63d40481d12fc9cc4c1adab0/63d40481d12fc9cc4c1adab0_Images/63d40481d12fc9cc4c1adab0_Image_8.jpeg,did not like,3.195382774,,,,,,,,,,,,,
,,,,,,,space,5.8475,NAN,,NAN,,0,50,50,50,1,51,Taylor,Rej,Participant_Images/63d40481d12fc9cc4c1adab0/63d40481d12fc9cc4c1adab0_Images/63d40481d12fc9cc4c1adab0_Image_20.jpeg,liked,1.779333479,,,,,,,,,,,,,
,,,,,,,space,2.6654,NAN,,NAN,,0,51,51,51,1,52,Taylor,Rej,Participant_Images/63d40481d12fc9cc4c1adab0/63d40481d12fc9cc4c1adab0_Images/63d40481d12fc9cc4c1adab0_Image_1.jpeg,liked,4.312468682,,,,,,,,,,,,,
,,,,,,,space,3.9328,NAN,,NAN,,0,52,52,52,1,53,Taylor,Rej,Participant_Images/63d40481d12fc9cc4c1adab0/63d40481d12fc9cc4c1adab0_Images/63d40481d12fc9cc4c1adab0_Image_11.jpeg,did not like,4.940433059,,,,,,,,,,,,,
,,,,,,,space,3.9804,NAN,,NAN,,0,53,53,53,1,54,Taylor,Rej,Participant_Images/63d40481d12fc9cc4c1adab0/63d40481d12fc9cc4c1adab0_Images/63d40481d12fc9cc4c1adab0_Image_21.jpeg,did not like,2.7105123,,,,,,,,,,,,,
,,,,,,,,,,,,,,,,,,,,,,,,c,0,space,0.6008,0,0,0,0,1,0.8177,,,
,,,,,,,,,NAN,,NAN,,0,54,54,54,1,55,Taylor,Rej,Participant_Images/63d40481d12fc9cc4c1adab0/63d40481d12fc9cc4c1adab0_Images/63d40481d12fc9cc4c1adab0_Image_15.jpeg,liked,3.602308302,,,,,,,,,,,,,
,,,,,,,space,4.367,NAN,,NAN,,0,55,55,55,1,56,Taylor,Rej,Participant_Images/63d40481d12fc9cc4c1adab0/63d40481d12fc9cc4c1adab0_Images/63d40481d12fc9cc4c1adab0_Image_5.jpeg,liked,4.106391878,,,,,,,,,,,,,
,,,,,,,space,0.9318,NAN,,NAN,,0,56,56,56,1,57,Taylor,Rej,Participant_Images/63d40481d12fc9cc4c1adab0/63d40481d12fc9cc4c1adab0_Images/63d40481d12fc9cc4c1adab0_Image_9.jpeg,did not like,3.799433026,,,,,,,,,,,,,
,,,,,,,space,7.1646,NAN,,NAN,,0,57,57,57,1,58,Taylor,Rej,Participant_Images/63d40481d12fc9cc4c1adab0/63d40481d12fc9cc4c1adab0_Images/63d40481d12fc9cc4c1adab0_Image_14.jpeg,did not like,5.246980764,,,,,,,,,,,,,
,,,,,,,space,10.0471,NAN,,NAN,,0,58,58,58,1,59,Taylor,Rej,Participant_Images/63d40481d12fc9cc4c1adab0/63d40481d12fc9cc4c1adab0_Images/63d40481d12fc9cc4c1adab0_Image_17.jpeg,liked,3.30081769,,,,,,,,,,,,,
,,,,,,,,,,,,,,,,,,,,,,,,c,0,space,0.9012,0,0,0,0,1,1.4345,,,
,,,,,,,,,1,,1,,0,59,59,59,1,60,Taylor,Rej,Participant_Images/63d40481d12fc9cc4c1adab0/63d40481d12fc9cc4c1adab0_Images/63d40481d12fc9cc4c1adab0_Image_4.jpeg,liked,1.661473164,,,,,,,,,,,,,
,,,,,space,195.3844,space,3.5966,NAN,,NAN,,0,60,60,60,1,61,Alex,Rej,Participant_Images/63d40481d12fc9cc4c1adab0/63d40481d12fc9cc4c1adab0_Images/63d40481d12fc9cc4c1adab0_Image_3.jpeg,did not like,3.613205605,,,,,,,,,,,,,
,,,,,,,space,17.4658,NAN,,NAN,,0,61,61,61,1,62,Alex,Rej,Participant_Images/63d40481d12fc9cc4c1adab0/63d40481d12fc9cc4c1adab0_Images/63d40481d12fc9cc4c1adab0_Image_12.jpeg,did not like,4.988446431,,,,,,,,,,,,,
,,,,,,,space,3.2321,NAN,,NAN,,0,62,62,62,1,63,Alex,Rej,Participant_Images/63d40481d12fc9cc4c1adab0/63d40481d12fc9cc4c1adab0_Images/63d40481d12fc9cc4c1adab0_Image_2.jpeg,liked,3.470791822,,,,,,,,,,,,,
,,,,,,,space,1.2981,NAN,,NAN,,0,63,63,63,1,64,Alex,Rej,Participant_Images/63d40481d12fc9cc4c1adab0/63d40481d12fc9cc4c1adab0_Images/63d40481d12fc9cc4c1adab0_Image_1.jpeg,did not like,3.820572462,,,,,,,,,,,,,
,,,,,,,,,,,,,,,,,,,,,,,,,999,space,3.4673,0,0,0,0,1,,,,
,,,,,,,,,NAN,,NAN,,0,64,64,64,1,65,Alex,Rej,Participant_Images/63d40481d12fc9cc4c1adab0/63d40481d12fc9cc4c1adab0_Images/63d40481d12fc9cc4c1adab0_Image_8.jpeg,did not like,2.455989137,,,,,,,,,,,,,
,,,,,,,space,7.019,NAN,,NAN,,0,65,65,65,1,66,Alex,Rej,Participant_Images/63d40481d12fc9cc4c1adab0/63d40481d12fc9cc4c1adab0_Images/63d40481d12fc9cc4c1adab0_Image_22.jpeg,liked,3.79605092,,,,,,,,,,,,,
,,,,,,,space,2.3857,NAN,,NAN,,0,66,66,66,1,67,Alex,Rej,Participant_Images/63d40481d12fc9cc4c1adab0/63d40481d12fc9cc4c1adab0_Images/63d40481d12fc9cc4c1adab0_Image_21.jpeg,did not like,3.562416326,,,,,,,,,,,,,
,,,,,,,space,2.275,NAN,,NAN,,0,67,67,67,1,68,Alex,Rej,Participant_Images/63d40481d12fc9cc4c1adab0/63d40481d12fc9cc4c1adab0_Images/63d40481d12fc9cc4c1adab0_Image_11.jpeg,did not like,2.843822497,,,,,,,,,,,,,
,,,,,,,space,1.34,NAN,,NAN,,0,68,68,68,1,69,Alex,Rej,Participant_Images/63d40481d12fc9cc4c1adab0/63d40481d12fc9cc4c1adab0_Images/63d40481d12fc9cc4c1adab0_Image_16.jpeg,did not like,3.546495948,,,,,,,,,,,,,
,,,,,,,,,,,,,,,,,,,,,,,,c,0,space,2.8249,0,0,0,0,1,1.0678,,,
,,,,,,,,,NAN,,NAN,,0,69,69,69,1,70,Alex,Rej,Participant_Images/63d40481d12fc9cc4c1adab0/63d40481d12fc9cc4c1adab0_Images/63d40481d12fc9cc4c1adab0_Image_5.jpeg,did not like,1.672012706,,,,,,,,,,,,,
,,,,,,,space,1.6927,NAN,,NAN,,0,70,70,70,1,71,Alex,Rej,Participant_Images/63d40481d12fc9cc4c1adab0/63d40481d12fc9cc4c1adab0_Images/63d40481d12fc9cc4c1adab0_Image_27.jpeg,did not like,4.942172136,,,,,,,,,,,,,
,,,,,,,space,5.1343,NAN,,NAN,,0,71,71,71,1,72,Alex,Rej,Participant_Images/63d40481d12fc9cc4c1adab0/63d40481d12fc9cc4c1adab0_Images/63d40481d12fc9cc4c1adab0_Image_26.jpeg,liked,2.50187214,,,,,,,,,,,,,
,,,,,,,space,0.9676,NAN,,NAN,,0,72,72,72,1,73,Alex,Rej,Participant_Images/63d40481d12fc9cc4c1adab0/63d40481d12fc9cc4c1adab0_Images/63d40481d12fc9cc4c1adab0_Image_19.jpeg,did not like,2.071164779,,,,,,,,,,,,,
,,,,,,,space,1.0806,NAN,,NAN,,0,73,73,73,1,74,Alex,Rej,Participant_Images/63d40481d12fc9cc4c1adab0/63d40481d12fc9cc4c1adab0_Images/63d40481d12fc9cc4c1adab0_Image_23.jpeg,liked,5.336503566,,,,,,,,,,,,,
,,,,,,,,,,,,,,,,,,,,,,,,c,0,space,43.4834,0,0,0,0,1,0.6672,,,
,,,,,,,,,NAN,,NAN,,0,74,74,74,1,75,Alex,Rej,Participant_Images/63d40481d12fc9cc4c1adab0/63d40481d12fc9cc4c1adab0_Images/63d40481d12fc9cc4c1adab0_Image_18.jpeg,did not like,2.642157193,,,,,,,,,,,,,
,,,,,,,space,1.1618,NAN,,NAN,,0,75,75,75,1,76,Alex,Rej,Participant_Images/63d40481d12fc9cc4c1adab0/63d40481d12fc9cc4c1adab0_Images/63d40481d12fc9cc4c1adab0_Image_24.jpeg,liked,4.456234322,,,,,,,,,,,,,
,,,,,,,space,1.5314,NAN,,NAN,,0,76,76,76,1,77,Alex,Rej,Participant_Images/63d40481d12fc9cc4c1adab0/63d40481d12fc9cc4c1adab0_Images/63d40481d12fc9cc4c1adab0_Image_6.jpeg,liked,4.438512181,,,,,,,,,,,,,
,,,,,,,space,1.0807,NAN,,NAN,,0,77,77,77,1,78,Alex,Rej,Participant_Images/63d40481d12fc9cc4c1adab0/63d40481d12fc9cc4c1adab0_Images/63d40481d12fc9cc4c1adab0_Image_13.jpeg,liked,2.682944783,,,,,,,,,,,,,
,,,,,,,space,1.531,NAN,,NAN,,0,78,78,78,1,79,Alex,Rej,Participant_Images/63d40481d12fc9cc4c1adab0/63d40481d12fc9cc4c1adab0_Images/63d40481d12fc9cc4c1adab0_Image_7.jpeg,did not like,4.51984296,,,,,,,,,,,,,
,,,,,,,,,,,,,,,,,,,,,,,,c,0,space,0.8831,0,0,0,0,1,0.9178,,,
,,,,,,,,,NAN,,NAN,,0,79,79,79,1,80,Alex,Rej,Participant_Images/63d40481d12fc9cc4c1adab0/63d40481d12fc9cc4c1adab0_Images/63d40481d12fc9cc4c1adab0_Image_30.jpeg,did not like,3.195382774,,,,,,,,,,,,,
,,,,,,,space,7.548,NAN,,NAN,,0,80,80,80,1,81,Alex,Rej,Participant_Images/63d40481d12fc9cc4c1adab0/63d40481d12fc9cc4c1adab0_Images/63d40481d12fc9cc4c1adab0_Image_25.jpeg,did not like,1.779333479,,,,,,,,,,,,,
,,,,,,,space,9.4812,NAN,,NAN,,0,81,81,81,1,82,Alex,Rej,Participant_Images/63d40481d12fc9cc4c1adab0/63d40481d12fc9cc4c1adab0_Images/63d40481d12fc9cc4c1adab0_Image_17.jpeg,did not like,4.312468682,,,,,,,,,,,,,
,,,,,,,space,1.5635,NAN,,NAN,,0,82,82,82,1,83,Alex,Rej,Participant_Images/63d40481d12fc9cc4c1adab0/63d40481d12fc9cc4c1adab0_Images/63d40481d12fc9cc4c1adab0_Image_10.jpeg,did not like,4.940433059,,,,,,,,,,,,,
,,,,,,,space,1.1318,NAN,,NAN,,0,83,83,83,1,84,Alex,Rej,Participant_Images/63d40481d12fc9cc4c1adab0/63d40481d12fc9cc4c1adab0_Images/63d40481d12fc9cc4c1adab0_Image_28.jpeg,did not like,2.7105123,,,,,,,,,,,,,
,,,,,,,,,,,,,,,,,,,,,,,,c,0,space,0.683,0,0,0,0,1,0.7198,,,
,,,,,,,,,NAN,,NAN,,0,84,84,84,1,85,Alex,Rej,Participant_Images/63d40481d12fc9cc4c1adab0/63d40481d12fc9cc4c1adab0_Images/63d40481d12fc9cc4c1adab0_Image_29.jpeg,liked,3.602308302,,,,,,,,,,,,,
,,,,,,,space,0.817,NAN,,NAN,,0,85,85,85,1,86,Alex,Rej,Participant_Images/63d40481d12fc9cc4c1adab0/63d40481d12fc9cc4c1adab0_Images/63d40481d12fc9cc4c1adab0_Image_9.jpeg,did not like,4.106391878,,,,,,,,,,,,,
,,,,,,,space,2.2139,NAN,,NAN,,0,86,86,86,1,87,Alex,Rej,Participant_Images/63d40481d12fc9cc4c1adab0/63d40481d12fc9cc4c1adab0_Images/63d40481d12fc9cc4c1adab0_Image_15.jpeg,did not like,3.799433026,,,,,,,,,,,,,
,,,,,,,space,7.3972,NAN,,NAN,,0,87,87,87,1,88,Alex,Rej,Participant_Images/63d40481d12fc9cc4c1adab0/63d40481d12fc9cc4c1adab0_Images/63d40481d12fc9cc4c1adab0_Image_4.jpeg,did not like,5.246980764,,,,,,,,,,,,,
,,,,,,,space,0.7655,NAN,,NAN,,0,88,88,88,1,89,Alex,Rej,Participant_Images/63d40481d12fc9cc4c1adab0/63d40481d12fc9cc4c1adab0_Images/63d40481d12fc9cc4c1adab0_Image_14.jpeg,did not like,3.30081769,,,,,,,,,,,,,
,,,,,,,,,,,,,,,,,,,,,,,,c,0,space,1.55,0,0,0,0,1,0.6668,,,
,,,,,,,,,2,,2,,0,89,89,89,1,90,Alex,Rej,Participant_Images/63d40481d12fc9cc4c1adab0/63d40481d12fc9cc4c1adab0_Images/63d40481d12fc9cc4c1adab0_Image_20.jpeg,liked,1.661473164,,,,,,,,,,,,,
,,,,,space,4.879,space,2.0095,NAN,,NAN,,0,90,90,90,1,91,Charlie,Acc,Participant_Images/63d40481d12fc9cc4c1adab0/63d40481d12fc9cc4c1adab0_Images/63d40481d12fc9cc4c1adab0_Image_28.jpeg,did not like,3.613205605,,,,,,,,,,,,,
,,,,,,,space,1.5188,NAN,,NAN,,0,91,91,91,1,92,Charlie,Acc,Participant_Images/63d40481d12fc9cc4c1adab0/63d40481d12fc9cc4c1adab0_Images/63d40481d12fc9cc4c1adab0_Image_18.jpeg,liked,4.988446431,,,,,,,,,,,,,
,,,,,,,space,6.6035,NAN,,NAN,,0,92,92,92,1,93,Charlie,Acc,Participant_Images/63d40481d12fc9cc4c1adab0/63d40481d12fc9cc4c1adab0_Images/63d40481d12fc9cc4c1adab0_Image_11.jpeg,did not like,3.470791822,,,,,,,,,,,,,
,,,,,,,space,3.2473,NAN,,NAN,,0,93,93,93,1,94,Charlie,Acc,Participant_Images/63d40481d12fc9cc4c1adab0/63d40481d12fc9cc4c1adab0_Images/63d40481d12fc9cc4c1adab0_Image_8.jpeg,liked,3.820572462,,,,,,,,,,,,,
,,,,,,,,,,,,,,,,,,,,,,,,c,0,space,5.3163,0,0,0,0,1,1.3497,,,
,,,,,,,,,NAN,,NAN,,0,94,94,94,1,95,Charlie,Acc,Participant_Images/63d40481d12fc9cc4c1adab0/63d40481d12fc9cc4c1adab0_Images/63d40481d12fc9cc4c1adab0_Image_13.jpeg,liked,2.455989137,,,,,,,,,,,,,
,,,,,,,space,2.4146,NAN,,NAN,,0,95,95,95,1,96,Charlie,Acc,Participant_Images/63d40481d12fc9cc4c1adab0/63d40481d12fc9cc4c1adab0_Images/63d40481d12fc9cc4c1adab0_Image_19.jpeg,liked,3.79605092,,,,,,,,,,,,,
,,,,,,,space,7.3644,NAN,,NAN,,0,96,96,96,1,97,Charlie,Acc,Participant_Images/63d40481d12fc9cc4c1adab0/63d40481d12fc9cc4c1adab0_Images/63d40481d12fc9cc4c1adab0_Image_20.jpeg,did not like,3.562416326,,,,,,,,,,,,,
,,,,,,,space,0.9644,NAN,,NAN,,0,97,97,97,1,98,Charlie,Acc,Participant_Images/63d40481d12fc9cc4c1adab0/63d40481d12fc9cc4c1adab0_Images/63d40481d12fc9cc4c1adab0_Image_10.jpeg,liked,2.843822497,,,,,,,,,,,,,
,,,,,,,space,0.8007,NAN,,NAN,,0,98,98,98,1,99,Charlie,Acc,Participant_Images/63d40481d12fc9cc4c1adab0/63d40481d12fc9cc4c1adab0_Images/63d40481d12fc9cc4c1adab0_Image_2.jpeg,liked,3.546495948,,,,,,,,,,,,,
,,,,,,,,,,,,,,,,,,,,,,,,c,0,space,29.6499,0,0,0,0,1,1.1335,,,
,,,,,,,,,NAN,,NAN,,0,99,99,99,1,100,Charlie,Acc,Participant_Images/63d40481d12fc9cc4c1adab0/63d40481d12fc9cc4c1adab0_Images/63d40481d12fc9cc4c1adab0_Image_14.jpeg,did not like,1.672012706,,,,,,,,,,,,,
,,,,,,,space,14.7794,NAN,,NAN,,0,100,100,100,1,101,Charlie,Acc,Participant_Images/63d40481d12fc9cc4c1adab0/63d40481d12fc9cc4c1adab0_Images/63d40481d12fc9cc4c1adab0_Image_7.jpeg,liked,4.942172136,,,,,,,,,,,,,
,,,,,,,space,7.3003,NAN,,NAN,,0,101,101,101,1,102,Charlie,Acc,Participant_Images/63d40481d12fc9cc4c1adab0/63d40481d12fc9cc4c1adab0_Images/63d40481d12fc9cc4c1adab0_Image_30.jpeg,liked,2.50187214,,,,,,,,,,,,,
,,,,,,,space,13.7139,NAN,,NAN,,0,102,102,102,1,103,Charlie,Acc,Participant_Images/63d40481d12fc9cc4c1adab0/63d40481d12fc9cc4c1adab0_Images/63d40481d12fc9cc4c1adab0_Image_4.jpeg,liked,2.071164779,,,,,,,,,,,,,
,,,,,,,space,10.5815,NAN,,NAN,,0,103,103,103,1,104,Charlie,Acc,Participant_Images/63d40481d12fc9cc4c1adab0/63d40481d12fc9cc4c1adab0_Images/63d40481d12fc9cc4c1adab0_Image_12.jpeg,liked,5.336503566,,,,,,,,,,,,,
,,,,,,,,,,,,,,,,,,,,,,,,c,0,space,20.4335,0,0,0,0,1,1.8333,,,
,,,,,,,,,NAN,,NAN,,0,104,104,104,1,105,Charlie,Acc,Participant_Images/63d40481d12fc9cc4c1adab0/63d40481d12fc9cc4c1adab0_Images/63d40481d12fc9cc4c1adab0_Image_5.jpeg,liked,2.642157193,,,,,,,,,,,,,
,,,,,,,space,12.4977,NAN,,NAN,,0,105,105,105,1,106,Charlie,Acc,Participant_Images/63d40481d12fc9cc4c1adab0/63d40481d12fc9cc4c1adab0_Images/63d40481d12fc9cc4c1adab0_Image_15.jpeg,liked,4.456234322,,,,,,,,,,,,,
,,,,,,,space,8.4822,NAN,,NAN,,0,106,106,106,1,107,Charlie,Acc,Participant_Images/63d40481d12fc9cc4c1adab0/63d40481d12fc9cc4c1adab0_Images/63d40481d12fc9cc4c1adab0_Image_24.jpeg,did not like,4.438512181,,,,,,,,,,,,,
,,,,,,,space,0.9822,NAN,,NAN,,0,107,107,107,1,108,Charlie,Acc,Participant_Images/63d40481d12fc9cc4c1adab0/63d40481d12fc9cc4c1adab0_Images/63d40481d12fc9cc4c1adab0_Image_17.jpeg,liked,2.682944783,,,,,,,,,,,,,
,,,,,,,space,1.4303,NAN,,NAN,,0,108,108,108,1,109,Charlie,Acc,Participant_Images/63d40481d12fc9cc4c1adab0/63d40481d12fc9cc4c1adab0_Images/63d40481d12fc9cc4c1adab0_Image_22.jpeg,did not like,4.51984296,,,,,,,,,,,,,
,,,,,,,,,,,,,,,,,,,,,,,,c,0,space,3.6344,0,0,0,0,1,1.4348,,,
,,,,,,,,,NAN,,NAN,,0,109,109,109,1,110,Charlie,Acc,Participant_Images/63d40481d12fc9cc4c1adab0/63d40481d12fc9cc4c1adab0_Images/63d40481d12fc9cc4c1adab0_Image_6.jpeg,liked,3.195382774,,,,,,,,,,,,,
,,,,,,,space,1.0307,NAN,,NAN,,0,110,110,110,1,111,Charlie,Acc,Participant_Images/63d40481d12fc9cc4c1adab0/63d40481d12fc9cc4c1adab0_Images/63d40481d12fc9cc4c1adab0_Image_3.jpeg,liked,1.779333479,,,,,,,,,,,,,
,,,,,,,space,0.7631,NAN,,NAN,,0,111,111,111,1,112,Charlie,Acc,Participant_Images/63d40481d12fc9cc4c1adab0/63d40481d12fc9cc4c1adab0_Images/63d40481d12fc9cc4c1adab0_Image_26.jpeg,liked,4.312468682,,,,,,,,,,,,,
,,,,,,,space,0.5643,NAN,,NAN,,0,112,112,112,1,113,Charlie,Acc,Participant_Images/63d40481d12fc9cc4c1adab0/63d40481d12fc9cc4c1adab0_Images/63d40481d12fc9cc4c1adab0_Image_27.jpeg,did not like,4.940433059,,,,,,,,,,,,,
,,,,,,,space,0.4809,NAN,,NAN,,0,113,113,113,1,114,Charlie,Acc,Participant_Images/63d40481d12fc9cc4c1adab0/63d40481d12fc9cc4c1adab0_Images/63d40481d12fc9cc4c1adab0_Image_21.jpeg,liked,2.7105123,,,,,,,,,,,,,
,,,,,,,,,,,,,,,,,,,,,,,,c,0,space,3.4168,0,0,0,0,1,1.199,,,
,,,,,,,,,NAN,,NAN,,0,114,114,114,1,115,Charlie,Acc,Participant_Images/63d40481d12fc9cc4c1adab0/63d40481d12fc9cc4c1adab0_Images/63d40481d12fc9cc4c1adab0_Image_9.jpeg,liked,3.602308302,,,,,,,,,,,,,
,,,,,,,space,9.9978,NAN,,NAN,,0,115,115,115,1,116,Charlie,Acc,Participant_Images/63d40481d12fc9cc4c1adab0/63d40481d12fc9cc4c1adab0_Images/63d40481d12fc9cc4c1adab0_Image_23.jpeg,liked,4.106391878,,,,,,,,,,,,,
,,,,,,,space,4.4477,NAN,,NAN,,0,116,116,116,1,117,Charlie,Acc,Participant_Images/63d40481d12fc9cc4c1adab0/63d40481d12fc9cc4c1adab0_Images/63d40481d12fc9cc4c1adab0_Image_16.jpeg,did not like,3.799433026,,,,,,,,,,,,,
,,,,,,,space,29.4467,NAN,,NAN,,0,117,117,117,1,118,Charlie,Acc,Participant_Images/63d40481d12fc9cc4c1adab0/63d40481d12fc9cc4c1adab0_Images/63d40481d12fc9cc4c1adab0_Image_25.jpeg,did not like,5.246980764,,,,,,,,,,,,,
,,,,,,,space,11.5485,NAN,,NAN,,0,118,118,118,1,119,Charlie,Acc,Participant_Images/63d40481d12fc9cc4c1adab0/63d40481d12fc9cc4c1adab0_Images/63d40481d12fc9cc4c1adab0_Image_29.jpeg,liked,3.30081769,,,,,,,,,,,,,
,,,,,,,,,,,,,,,,,,,,,,,,c,0,space,35.233,0,0,0,0,1,1.2507,,,
,,,,,,,,,2,,2,,0,119,119,119,1,120,Charlie,Acc,Participant_Images/63d40481d12fc9cc4c1adab0/63d40481d12fc9cc4c1adab0_Images/63d40481d12fc9cc4c1adab0_Image_1.jpeg,liked,1.661473164,,,,,,,,,,,,,
,,,,,space,17.9169,space,21.5847,NAN,,NAN,,0,120,120,120,1,121,Sam,Acc,Participant_Images/63d40481d12fc9cc4c1adab0/63d40481d12fc9cc4c1adab0_Images/63d40481d12fc9cc4c1adab0_Image_10.jpeg,did not like,3.613205605,,,,,,,,,,,,,
,,,,,,,space,8.5994,NAN,,NAN,,0,121,121,121,1,122,Sam,Acc,Participant_Images/63d40481d12fc9cc4c1adab0/63d40481d12fc9cc4c1adab0_Images/63d40481d12fc9cc4c1adab0_Image_7.jpeg,liked,4.988446431,,,,,,,,,,,,,
,,,,,,,space,15.0527,NAN,,NAN,,0,122,122,122,1,123,Sam,Acc,Participant_Images/63d40481d12fc9cc4c1adab0/63d40481d12fc9cc4c1adab0_Images/63d40481d12fc9cc4c1adab0_Image_12.jpeg,liked,3.470791822,,,,,,,,,,,,,
,,,,,,,space,17.3956,NAN,,NAN,,0,123,123,123,1,124,Sam,Acc,Participant_Images/63d40481d12fc9cc4c1adab0/63d40481d12fc9cc4c1adab0_Images/63d40481d12fc9cc4c1adab0_Image_16.jpeg,liked,3.820572462,,,,,,,,,,,,,
,,,,,,,,,,,,,,,,,,,,,,,,c,0,space,9.6595,0,0,0,0,1,1.6842,,,
,,,,,,,,,NAN,,NAN,,0,124,124,124,1,125,Sam,Acc,Participant_Images/63d40481d12fc9cc4c1adab0/63d40481d12fc9cc4c1adab0_Images/63d40481d12fc9cc4c1adab0_Image_26.jpeg,liked,2.455989137,,,,,,,,,,,,,
,,,,,,,space,7.5541,NAN,,NAN,,0,125,125,125,1,126,Sam,Acc,Participant_Images/63d40481d12fc9cc4c1adab0/63d40481d12fc9cc4c1adab0_Images/63d40481d12fc9cc4c1adab0_Image_11.jpeg,liked,3.79605092,,,,,,,,,,,,,
,,,,,,,space,4.1565,NAN,,NAN,,0,126,126,126,1,127,Sam,Acc,Participant_Images/63d40481d12fc9cc4c1adab0/63d40481d12fc9cc4c1adab0_Images/63d40481d12fc9cc4c1adab0_Image_29.jpeg,liked,3.562416326,,,,,,,,,,,,,
,,,,,,,space,1.5684,NAN,,NAN,,0,127,127,127,1,128,Sam,Acc,Participant_Images/63d40481d12fc9cc4c1adab0/63d40481d12fc9cc4c1adab0_Images/63d40481d12fc9cc4c1adab0_Image_9.jpeg,did not like,2.843822497,,,,,,,,,,,,,
,,,,,,,space,3.4245,NAN,,NAN,,0,128,128,128,1,129,Sam,Acc,Participant_Images/63d40481d12fc9cc4c1adab0/63d40481d12fc9cc4c1adab0_Images/63d40481d12fc9cc4c1adab0_Image_3.jpeg,did not like,3.546495948,,,,,,,,,,,,,
,,,,,,,,,,,,,,,,,,,,,,,,c,0,space,8.854,0,0,0,0,1,1.0593,,,
,,,,,,,,,NAN,,NAN,,0,129,129,129,1,130,Sam,Acc,Participant_Images/63d40481d12fc9cc4c1adab0/63d40481d12fc9cc4c1adab0_Images/63d40481d12fc9cc4c1adab0_Image_4.jpeg,liked,1.672012706,,,,,,,,,,,,,
,,,,,,,space,6.7104,NAN,,NAN,,0,130,130,130,1,131,Sam,Acc,Participant_Images/63d40481d12fc9cc4c1adab0/63d40481d12fc9cc4c1adab0_Images/63d40481d12fc9cc4c1adab0_Image_14.jpeg,liked,4.942172136,,,,,,,,,,,,,
,,,,,,,space,1.7402,NAN,,NAN,,0,131,131,131,1,132,Sam,Acc,Participant_Images/63d40481d12fc9cc4c1adab0/63d40481d12fc9cc4c1adab0_Images/63d40481d12fc9cc4c1adab0_Image_17.jpeg,liked,2.50187214,,,,,,,,,,,,,
,,,,,,,space,3.0192,NAN,,NAN,,0,132,132,132,1,133,Sam,Acc,Participant_Images/63d40481d12fc9cc4c1adab0/63d40481d12fc9cc4c1adab0_Images/63d40481d12fc9cc4c1adab0_Image_27.jpeg,liked,2.071164779,,,,,,,,,,,,,
,,,,,,,space,1.2642,NAN,,NAN,,0,133,133,133,1,134,Sam,Acc,Participant_Images/63d40481d12fc9cc4c1adab0/63d40481d12fc9cc4c1adab0_Images/63d40481d12fc9cc4c1adab0_Image_15.jpeg,did not like,5.336503566,,,,,,,,,,,,,
,,,,,,,,,,,,,,,,,,,,,,,,c,0,space,2.3838,0,0,0,0,1,1.1661,,,
,,,,,,,,,NAN,,NAN,,0,134,134,134,1,135,Sam,Acc,Participant_Images/63d40481d12fc9cc4c1adab0/63d40481d12fc9cc4c1adab0_Images/63d40481d12fc9cc4c1adab0_Image_2.jpeg,liked,2.642157193,,,,,,,,,,,,,
,,,,,,,space,1.6815,NAN,,NAN,,0,135,135,135,1,136,Sam,Acc,Participant_Images/63d40481d12fc9cc4c1adab0/63d40481d12fc9cc4c1adab0_Images/63d40481d12fc9cc4c1adab0_Image_23.jpeg,liked,4.456234322,,,,,,,,,,,,,
,,,,,,,space,8.282,NAN,,NAN,,0,136,136,136,1,137,Sam,Acc,Participant_Images/63d40481d12fc9cc4c1adab0/63d40481d12fc9cc4c1adab0_Images/63d40481d12fc9cc4c1adab0_Image_8.jpeg,liked,4.438512181,,,,,,,,,,,,,
,,,,,,,space,14.5816,NAN,,NAN,,0,137,137,137,1,138,Sam,Acc,Participant_Images/63d40481d12fc9cc4c1adab0/63d40481d12fc9cc4c1adab0_Images/63d40481d12fc9cc4c1adab0_Image_1.jpeg,liked,2.682944783,,,,,,,,,,,,,
,,,,,,,space,0.5815,NAN,,NAN,,0,138,138,138,1,139,Sam,Acc,Participant_Images/63d40481d12fc9cc4c1adab0/63d40481d12fc9cc4c1adab0_Images/63d40481d12fc9cc4c1adab0_Image_25.jpeg,liked,4.51984296,,,,,,,,,,,,,
,,,,,,,,,,,,,,,,,,,,,,,,c,0,space,9.6838,0,0,0,0,1,3.9177,,,
,,,,,,,,,NAN,,NAN,,0,139,139,139,1,140,Sam,Acc,Participant_Images/63d40481d12fc9cc4c1adab0/63d40481d12fc9cc4c1adab0_Images/63d40481d12fc9cc4c1adab0_Image_6.jpeg,liked,3.195382774,,,,,,,,,,,,,
,,,,,,,space,50.5642,NAN,,NAN,,0,140,140,140,1,141,Sam,Acc,Participant_Images/63d40481d12fc9cc4c1adab0/63d40481d12fc9cc4c1adab0_Images/63d40481d12fc9cc4c1adab0_Image_5.jpeg,did not like,1.779333479,,,,,,,,,,,,,
,,,,,,,space,91.4984,NAN,,NAN,,0,141,141,141,1,142,Sam,Acc,Participant_Images/63d40481d12fc9cc4c1adab0/63d40481d12fc9cc4c1adab0_Images/63d40481d12fc9cc4c1adab0_Image_21.jpeg,did not like,4.312468682,,,,,,,,,,,,,
,,,,,,,space,3.8481,NAN,,NAN,,0,142,142,142,1,143,Sam,Acc,Participant_Images/63d40481d12fc9cc4c1adab0/63d40481d12fc9cc4c1adab0_Images/63d40481d12fc9cc4c1adab0_Image_20.jpeg,liked,4.940433059,,,,,,,,,,,,,
,,,,,,,space,4.565,NAN,,NAN,,0,143,143,143,1,144,Sam,Acc,Participant_Images/63d40481d12fc9cc4c1adab0/63d40481d12fc9cc4c1adab0_Images/63d40481d12fc9cc4c1adab0_Image_19.jpeg,did not like,2.7105123,,,,,,,,,,,,,
,,,,,,,,,,,,,,,,,,,,,,,,c,0,space,2.2006,0,0,0,0,1,1.2349,,,
,,,,,,,,,NAN,,NAN,,0,144,144,144,1,145,Sam,Acc,Participant_Images/63d40481d12fc9cc4c1adab0/63d40481d12fc9cc4c1adab0_Images/63d40481d12fc9cc4c1adab0_Image_28.jpeg,liked,3.602308302,,,,,,,,,,,,,
,,,,,,,space,0.765,NAN,,NAN,,0,145,145,145,1,146,Sam,Acc,Participant_Images/63d40481d12fc9cc4c1adab0/63d40481d12fc9cc4c1adab0_Images/63d40481d12fc9cc4c1adab0_Image_18.jpeg,liked,4.106391878,,,,,,,,,,,,,
,,,,,,,space,1.614,NAN,,NAN,,0,146,146,146,1,147,Sam,Acc,Participant_Images/63d40481d12fc9cc4c1adab0/63d40481d12fc9cc4c1adab0_Images/63d40481d12fc9cc4c1adab0_Image_30.jpeg,did not like,3.799433026,,,,,,,,,,,,,
,,,,,,,space,1.0642,NAN,,NAN,,0,147,147,147,1,148,Sam,Acc,Participant_Images/63d40481d12fc9cc4c1adab0/63d40481d12fc9cc4c1adab0_Images/63d40481d12fc9cc4c1adab0_Image_13.jpeg,liked,5.246980764,,,,,,,,,,,,,
,,,,,,,space,1.0305,NAN,,NAN,,0,148,148,148,1,149,Sam,Acc,Participant_Images/63d40481d12fc9cc4c1adab0/63d40481d12fc9cc4c1adab0_Images/63d40481d12fc9cc4c1adab0_Image_22.jpeg,liked,3.30081769,,,,,,,,,,,,,
,,,,,,,,,,,,,,,,,,,,,,,,c,0,space,1.3007,0,0,0,0,1,1.15,,,
,,,,,,,,,2,,2,,0,149,149,149,1,150,Sam,Acc,Participant_Images/63d40481d12fc9cc4c1adab0/63d40481d12fc9cc4c1adab0_Images/63d40481d12fc9cc4c1adab0_Image_24.jpeg,did not like,1.661473164,,,,,,,,,,,,,
,,,,,,,,,,,,,,,,,,,,,,,,,,,,,,,,,,,space,2.1677
