PROLIFIC_ID,endwelcomescreen_keys.keys,endwelcomescreen_keys.rt,endinstructionscreen_keys.keys,endinstructionscreen_keys.rt,endpartnermatch_keys.keys,endpartnermatch_keys.rt,sharenextphoto_key.keys,sharenextphoto_key.rt,salience_rating,key_resp.keys,stress_level,stresslevel_keypress.keys,entiretaskloop.thisRepN,entiretaskloop.thisTrialN,entiretaskloop.thisN,entiretaskloop.thisIndex,entiretaskloop.ran,TrialNumber,Partner,Condition,Photos,Feedback,FeedbackWait,choice_keys.keys,playlottery,choice_keys.rt,lotteryguess_keys.keys,resumeafterlottery_keys.keys,resumeafterlottery_keys.rt,lotteryloop.thisRepN,lotteryloop.thisTrialN,lotteryloop.thisN,lotteryloop.thisIndex,lotteryloop.ran,lotteryguess_keys.rt,end_screen_keys.keys,end_screen_keys.rt
63d5bb0d1cc3800ad1e343dc,space,10.5072,,,,,,,,,,,,,,,,,,,,,,,,,,,,,,,,,,,
63d5bb0d1cc3800ad1e343dc,,,,,,,,,,,,,,,,,,,,,,,,,,,,,,,,,,,,,
63d5bb0d1cc3800ad1e343dc,,,space,13.4991,,,,,,,,,,,,,,,,,,,,,,,,,,,,,,,,,
63d5bb0d1cc3800ad1e343dc,,,,,space,3.5811,space,1.8752,NAN,,NAN,,0.0,0.0,0.0,0.0,1.0,1.0,Riley,Acc,Participant_Images/63d5bb0d1cc3800ad1e343dc/63d5bb0d1cc3800ad1e343dc_Images/63d5bb0d1cc3800ad1e343dc_Image_23.jpeg,liked,3.613205605,,,,,,,,,,,,,,
63d5bb0d1cc3800ad1e343dc,,,,,,,space,1.2846,NAN,,NAN,,0.0,1.0,1.0,1.0,1.0,2.0,Riley,Acc,Participant_Images/63d5bb0d1cc3800ad1e343dc/63d5bb0d1cc3800ad1e343dc_Images/63d5bb0d1cc3800ad1e343dc_Image_3.jpeg,liked,4.988446431,,,,,,,,,,,,,,
63d5bb0d1cc3800ad1e343dc,,,,,,,space,0.8821,NAN,,NAN,,0.0,2.0,2.0,2.0,1.0,3.0,Riley,Acc,Participant_Images/63d5bb0d1cc3800ad1e343dc/63d5bb0d1cc3800ad1e343dc_Images/63d5bb0d1cc3800ad1e343dc_Image_16.jpeg,liked,3.470791822,,,,,,,,,,,,,,
63d5bb0d1cc3800ad1e343dc,,,,,,,space,1.6364,NAN,,NAN,,0.0,3.0,3.0,3.0,1.0,4.0,Riley,Acc,Participant_Images/63d5bb0d1cc3800ad1e343dc/63d5bb0d1cc3800ad1e343dc_Images/63d5bb0d1cc3800ad1e343dc_Image_12.jpeg,did not like,3.820572462,,,,,,,,,,,,,,
63d5bb0d1cc3800ad1e343dc,,,,,,,,,,,,,,,,,,,,,,,,s,1.0,3.5515,,space,0.7531,0.0,0.0,0.0,0.0,1.0,,,
63d5bb0d1cc3800ad1e343dc,,,,,,,,,NAN,,NAN,,0.0,4.0,4.0,4.0,1.0,5.0,Riley,Acc,Participant_Images/63d5bb0d1cc3800ad1e343dc/63d5bb0d1cc3800ad1e343dc_Images/63d5bb0d1cc3800ad1e343dc_Image_30.jpeg,liked,2.455989137,,,,,,,,,,,,,,
63d5bb0d1cc3800ad1e343dc,,,,,,,space,0.8588,NAN,,NAN,,0.0,5.0,5.0,5.0,1.0,6.0,Riley,Acc,Participant_Images/63d5bb0d1cc3800ad1e343dc/63d5bb0d1cc3800ad1e343dc_Images/63d5bb0d1cc3800ad1e343dc_Image_27.jpeg,liked,3.79605092,,,,,,,,,,,,,,
63d5bb0d1cc3800ad1e343dc,,,,,,,space,1.019,NAN,,NAN,,0.0,6.0,6.0,6.0,1.0,7.0,Riley,Acc,Participant_Images/63d5bb0d1cc3800ad1e343dc/63d5bb0d1cc3800ad1e343dc_Images/63d5bb0d1cc3800ad1e343dc_Image_11.jpeg,liked,3.562416326,,,,,,,,,,,,,,
63d5bb0d1cc3800ad1e343dc,,,,,,,space,0.6085,NAN,,NAN,,0.0,7.0,7.0,7.0,1.0,8.0,Riley,Acc,Participant_Images/63d5bb0d1cc3800ad1e343dc/63d5bb0d1cc3800ad1e343dc_Images/63d5bb0d1cc3800ad1e343dc_Image_1.jpeg,did not like,2.843822497,,,,,,,,,,,,,,
63d5bb0d1cc3800ad1e343dc,,,,,,,space,0.8476,NAN,,NAN,,0.0,8.0,8.0,8.0,1.0,9.0,Riley,Acc,Participant_Images/63d5bb0d1cc3800ad1e343dc/63d5bb0d1cc3800ad1e343dc_Images/63d5bb0d1cc3800ad1e343dc_Image_28.jpeg,liked,3.546495948,,,,,,,,,,,,,,
63d5bb0d1cc3800ad1e343dc,,,,,,,,,,,,,,,,,,,,,,,,s,1.0,2.7766,h,space,0.7434,0.0,0.0,0.0,0.0,1.0,1.0695,,
63d5bb0d1cc3800ad1e343dc,,,,,,,,,NAN,,NAN,,0.0,9.0,9.0,9.0,1.0,10.0,Riley,Acc,Participant_Images/63d5bb0d1cc3800ad1e343dc/63d5bb0d1cc3800ad1e343dc_Images/63d5bb0d1cc3800ad1e343dc_Image_13.jpeg,liked,1.672012706,,,,,,,,,,,,,,
63d5bb0d1cc3800ad1e343dc,,,,,,,space,0.4289,NAN,,NAN,,0.0,10.0,10.0,10.0,1.0,11.0,Riley,Acc,Participant_Images/63d5bb0d1cc3800ad1e343dc/63d5bb0d1cc3800ad1e343dc_Images/63d5bb0d1cc3800ad1e343dc_Image_8.jpeg,did not like,4.942172136,,,,,,,,,,,,,,
63d5bb0d1cc3800ad1e343dc,,,,,,,space,0.8031,NAN,,NAN,,0.0,11.0,11.0,11.0,1.0,12.0,Riley,Acc,Participant_Images/63d5bb0d1cc3800ad1e343dc/63d5bb0d1cc3800ad1e343dc_Images/63d5bb0d1cc3800ad1e343dc_Image_10.jpeg,liked,2.50187214,,,,,,,,,,,,,,
63d5bb0d1cc3800ad1e343dc,,,,,,,space,0.6553,NAN,,NAN,,0.0,12.0,12.0,12.0,1.0,13.0,Riley,Acc,Participant_Images/63d5bb0d1cc3800ad1e343dc/63d5bb0d1cc3800ad1e343dc_Images/63d5bb0d1cc3800ad1e343dc_Image_7.jpeg,liked,2.071164779,,,,,,,,,,,,,,
63d5bb0d1cc3800ad1e343dc,,,,,,,space,0.8857,NAN,,NAN,,0.0,13.0,13.0,13.0,1.0,14.0,Riley,Acc,Participant_Images/63d5bb0d1cc3800ad1e343dc/63d5bb0d1cc3800ad1e343dc_Images/63d5bb0d1cc3800ad1e343dc_Image_24.jpeg,liked,5.336503566,,,,,,,,,,,,,,
63d5bb0d1cc3800ad1e343dc,,,,,,,,,,,,,,,,,,,,,,,,,999.0,,,space,2.5318,0.0,0.0,0.0,0.0,1.0,,,
63d5bb0d1cc3800ad1e343dc,,,,,,,,,NAN,,NAN,,0.0,14.0,14.0,14.0,1.0,15.0,Riley,Acc,Participant_Images/63d5bb0d1cc3800ad1e343dc/63d5bb0d1cc3800ad1e343dc_Images/63d5bb0d1cc3800ad1e343dc_Image_6.jpeg,liked,2.642157193,,,,,,,,,,,,,,
63d5bb0d1cc3800ad1e343dc,,,,,,,space,0.7963,NAN,,NAN,,0.0,15.0,15.0,15.0,1.0,16.0,Riley,Acc,Participant_Images/63d5bb0d1cc3800ad1e343dc/63d5bb0d1cc3800ad1e343dc_Images/63d5bb0d1cc3800ad1e343dc_Image_25.jpeg,liked,4.456234322,,,,,,,,,,,,,,
63d5bb0d1cc3800ad1e343dc,,,,,,,space,1.0374,NAN,,NAN,,0.0,16.0,16.0,16.0,1.0,17.0,Riley,Acc,Participant_Images/63d5bb0d1cc3800ad1e343dc/63d5bb0d1cc3800ad1e343dc_Images/63d5bb0d1cc3800ad1e343dc_Image_18.jpeg,did not like,4.438512181,,,,,,,,,,,,,,
63d5bb0d1cc3800ad1e343dc,,,,,,,space,0.7614,NAN,,NAN,,0.0,17.0,17.0,17.0,1.0,18.0,Riley,Acc,Participant_Images/63d5bb0d1cc3800ad1e343dc/63d5bb0d1cc3800ad1e343dc_Images/63d5bb0d1cc3800ad1e343dc_Image_17.jpeg,liked,2.682944783,,,,,,,,,,,,,,
63d5bb0d1cc3800ad1e343dc,,,,,,,space,0.4792,NAN,,NAN,,0.0,18.0,18.0,18.0,1.0,19.0,Riley,Acc,Participant_Images/63d5bb0d1cc3800ad1e343dc/63d5bb0d1cc3800ad1e343dc_Images/63d5bb0d1cc3800ad1e343dc_Image_4.jpeg,liked,4.51984296,,,,,,,,,,,,,,
63d5bb0d1cc3800ad1e343dc,,,,,,,,,,,,,,,,,,,,,,,,c,0.0,0.7961,,space,0.6838,0.0,0.0,0.0,0.0,1.0,,,
63d5bb0d1cc3800ad1e343dc,,,,,,,,,NAN,,NAN,,0.0,19.0,19.0,19.0,1.0,20.0,Riley,Acc,Participant_Images/63d5bb0d1cc3800ad1e343dc/63d5bb0d1cc3800ad1e343dc_Images/63d5bb0d1cc3800ad1e343dc_Image_15.jpeg,did not like,3.195382774,,,,,,,,,,,,,,
63d5bb0d1cc3800ad1e343dc,,,,,,,space,0.3428,NAN,,NAN,,0.0,20.0,20.0,20.0,1.0,21.0,Riley,Acc,Participant_Images/63d5bb0d1cc3800ad1e343dc/63d5bb0d1cc3800ad1e343dc_Images/63d5bb0d1cc3800ad1e343dc_Image_14.jpeg,did not like,1.779333479,,,,,,,,,,,,,,
63d5bb0d1cc3800ad1e343dc,,,,,,,space,1.0393,NAN,,NAN,,0.0,21.0,21.0,21.0,1.0,22.0,Riley,Acc,Participant_Images/63d5bb0d1cc3800ad1e343dc/63d5bb0d1cc3800ad1e343dc_Images/63d5bb0d1cc3800ad1e343dc_Image_19.jpeg,liked,4.312468682,,,,,,,,,,,,,,
63d5bb0d1cc3800ad1e343dc,,,,,,,space,0.8051,NAN,,NAN,,0.0,22.0,22.0,22.0,1.0,23.0,Riley,Acc,Participant_Images/63d5bb0d1cc3800ad1e343dc/63d5bb0d1cc3800ad1e343dc_Images/63d5bb0d1cc3800ad1e343dc_Image_22.jpeg,liked,4.940433059,,,,,,,,,,,,,,
63d5bb0d1cc3800ad1e343dc,,,,,,,space,29.3399,NAN,,NAN,,0.0,23.0,23.0,23.0,1.0,24.0,Riley,Acc,Participant_Images/63d5bb0d1cc3800ad1e343dc/63d5bb0d1cc3800ad1e343dc_Images/63d5bb0d1cc3800ad1e343dc_Image_5.jpeg,liked,2.7105123,,,,,,,,,,,,,,
63d5bb0d1cc3800ad1e343dc,,,,,,,,,,,,,,,,,,,,,,,,c,0.0,0.5149,,space,0.9855,0.0,0.0,0.0,0.0,1.0,,,
63d5bb0d1cc3800ad1e343dc,,,,,,,,,NAN,,NAN,,0.0,24.0,24.0,24.0,1.0,25.0,Riley,Acc,Participant_Images/63d5bb0d1cc3800ad1e343dc/63d5bb0d1cc3800ad1e343dc_Images/63d5bb0d1cc3800ad1e343dc_Image_26.jpeg,liked,3.602308302,,,,,,,,,,,,,,
63d5bb0d1cc3800ad1e343dc,,,,,,,space,0.9599,NAN,,NAN,,0.0,25.0,25.0,25.0,1.0,26.0,Riley,Acc,Participant_Images/63d5bb0d1cc3800ad1e343dc/63d5bb0d1cc3800ad1e343dc_Images/63d5bb0d1cc3800ad1e343dc_Image_20.jpeg,liked,4.106391878,,,,,,,,,,,,,,
63d5bb0d1cc3800ad1e343dc,,,,,,,space,0.8954,NAN,,NAN,,0.0,26.0,26.0,26.0,1.0,27.0,Riley,Acc,Participant_Images/63d5bb0d1cc3800ad1e343dc/63d5bb0d1cc3800ad1e343dc_Images/63d5bb0d1cc3800ad1e343dc_Image_29.jpeg,did not like,3.799433026,,,,,,,,,,,,,,
63d5bb0d1cc3800ad1e343dc,,,,,,,space,0.9095,NAN,,NAN,,0.0,27.0,27.0,27.0,1.0,28.0,Riley,Acc,Participant_Images/63d5bb0d1cc3800ad1e343dc/63d5bb0d1cc3800ad1e343dc_Images/63d5bb0d1cc3800ad1e343dc_Image_21.jpeg,did not like,5.246980764,,,,,,,,,,,,,,
63d5bb0d1cc3800ad1e343dc,,,,,,,space,0.9098,NAN,,NAN,,0.0,28.0,28.0,28.0,1.0,29.0,Riley,Acc,Participant_Images/63d5bb0d1cc3800ad1e343dc/63d5bb0d1cc3800ad1e343dc_Images/63d5bb0d1cc3800ad1e343dc_Image_2.jpeg,liked,3.30081769,,,,,,,,,,,,,,
63d5bb0d1cc3800ad1e343dc,,,,,,,,,,,,,,,,,,,,,,,,c,0.0,1.1449,,space,1.3887,0.0,0.0,0.0,0.0,1.0,,,
63d5bb0d1cc3800ad1e343dc,,,,,,,,,4,,2,,0.0,29.0,29.0,29.0,1.0,30.0,Riley,Acc,Participant_Images/63d5bb0d1cc3800ad1e343dc/63d5bb0d1cc3800ad1e343dc_Images/63d5bb0d1cc3800ad1e343dc_Image_9.jpeg,did not like,1.661473164,,,,,,,,,,,,,,
63d5bb0d1cc3800ad1e343dc,,,,,space,6.2491,space,0.6308,NAN,,NAN,,0.0,30.0,30.0,30.0,1.0,31.0,Alex,Neutral,Participant_Images/63d5bb0d1cc3800ad1e343dc/63d5bb0d1cc3800ad1e343dc_Images/63d5bb0d1cc3800ad1e343dc_Image_10.jpeg,did not like,3.613205605,,,,,,,,,,,,,,
63d5bb0d1cc3800ad1e343dc,,,,,,,space,0.733,NAN,,NAN,,0.0,31.0,31.0,31.0,1.0,32.0,Alex,Neutral,Participant_Images/63d5bb0d1cc3800ad1e343dc/63d5bb0d1cc3800ad1e343dc_Images/63d5bb0d1cc3800ad1e343dc_Image_28.jpeg,did not like,4.988446431,,,,,,,,,,,,,,
63d5bb0d1cc3800ad1e343dc,,,,,,,space,0.7653,NAN,,NAN,,0.0,32.0,32.0,32.0,1.0,33.0,Alex,Neutral,Participant_Images/63d5bb0d1cc3800ad1e343dc/63d5bb0d1cc3800ad1e343dc_Images/63d5bb0d1cc3800ad1e343dc_Image_21.jpeg,liked,3.470791822,,,,,,,,,,,,,,
63d5bb0d1cc3800ad1e343dc,,,,,,,space,0.7929,NAN,,NAN,,0.0,33.0,33.0,33.0,1.0,34.0,Alex,Neutral,Participant_Images/63d5bb0d1cc3800ad1e343dc/63d5bb0d1cc3800ad1e343dc_Images/63d5bb0d1cc3800ad1e343dc_Image_13.jpeg,did not like,3.820572462,,,,,,,,,,,,,,
63d5bb0d1cc3800ad1e343dc,,,,,,,,,,,,,,,,,,,,,,,,c,0.0,1.0214,,space,0.7042,0.0,0.0,0.0,0.0,1.0,,,
63d5bb0d1cc3800ad1e343dc,,,,,,,,,NAN,,NAN,,0.0,34.0,34.0,34.0,1.0,35.0,Alex,Neutral,Participant_Images/63d5bb0d1cc3800ad1e343dc/63d5bb0d1cc3800ad1e343dc_Images/63d5bb0d1cc3800ad1e343dc_Image_24.jpeg,liked,2.455989137,,,,,,,,,,,,,,
63d5bb0d1cc3800ad1e343dc,,,,,,,space,0.8454,NAN,,NAN,,0.0,35.0,35.0,35.0,1.0,36.0,Alex,Neutral,Participant_Images/63d5bb0d1cc3800ad1e343dc/63d5bb0d1cc3800ad1e343dc_Images/63d5bb0d1cc3800ad1e343dc_Image_18.jpeg,did not like,3.79605092,,,,,,,,,,,,,,
63d5bb0d1cc3800ad1e343dc,,,,,,,space,0.9951,NAN,,NAN,,0.0,36.0,36.0,36.0,1.0,37.0,Alex,Neutral,Participant_Images/63d5bb0d1cc3800ad1e343dc/63d5bb0d1cc3800ad1e343dc_Images/63d5bb0d1cc3800ad1e343dc_Image_22.jpeg,liked,3.562416326,,,,,,,,,,,,,,
63d5bb0d1cc3800ad1e343dc,,,,,,,space,0.8364,NAN,,NAN,,0.0,37.0,37.0,37.0,1.0,38.0,Alex,Neutral,Participant_Images/63d5bb0d1cc3800ad1e343dc/63d5bb0d1cc3800ad1e343dc_Images/63d5bb0d1cc3800ad1e343dc_Image_26.jpeg,liked,2.843822497,,,,,,,,,,,,,,
63d5bb0d1cc3800ad1e343dc,,,,,,,space,0.9997,NAN,,NAN,,0.0,38.0,38.0,38.0,1.0,39.0,Alex,Neutral,Participant_Images/63d5bb0d1cc3800ad1e343dc/63d5bb0d1cc3800ad1e343dc_Images/63d5bb0d1cc3800ad1e343dc_Image_1.jpeg,did not like,3.546495948,,,,,,,,,,,,,,
63d5bb0d1cc3800ad1e343dc,,,,,,,,,,,,,,,,,,,,,,,,c,0.0,1.3952,,space,0.8541,0.0,0.0,0.0,0.0,1.0,,,
63d5bb0d1cc3800ad1e343dc,,,,,,,,,NAN,,NAN,,0.0,39.0,39.0,39.0,1.0,40.0,Alex,Neutral,Participant_Images/63d5bb0d1cc3800ad1e343dc/63d5bb0d1cc3800ad1e343dc_Images/63d5bb0d1cc3800ad1e343dc_Image_29.jpeg,did not like,1.672012706,,,,,,,,,,,,,,
63d5bb0d1cc3800ad1e343dc,,,,,,,space,0.9081,NAN,,NAN,,0.0,40.0,40.0,40.0,1.0,41.0,Alex,Neutral,Participant_Images/63d5bb0d1cc3800ad1e343dc/63d5bb0d1cc3800ad1e343dc_Images/63d5bb0d1cc3800ad1e343dc_Image_5.jpeg,did not like,4.942172136,,,,,,,,,,,,,,
63d5bb0d1cc3800ad1e343dc,,,,,,,space,1.4418,NAN,,NAN,,0.0,41.0,41.0,41.0,1.0,42.0,Alex,Neutral,Participant_Images/63d5bb0d1cc3800ad1e343dc/63d5bb0d1cc3800ad1e343dc_Images/63d5bb0d1cc3800ad1e343dc_Image_4.jpeg,liked,2.50187214,,,,,,,,,,,,,,
63d5bb0d1cc3800ad1e343dc,,,,,,,space,0.9442,NAN,,NAN,,0.0,42.0,42.0,42.0,1.0,43.0,Alex,Neutral,Participant_Images/63d5bb0d1cc3800ad1e343dc/63d5bb0d1cc3800ad1e343dc_Images/63d5bb0d1cc3800ad1e343dc_Image_15.jpeg,did not like,2.071164779,,,,,,,,,,,,,,
63d5bb0d1cc3800ad1e343dc,,,,,,,space,0.6615,NAN,,NAN,,0.0,43.0,43.0,43.0,1.0,44.0,Alex,Neutral,Participant_Images/63d5bb0d1cc3800ad1e343dc/63d5bb0d1cc3800ad1e343dc_Images/63d5bb0d1cc3800ad1e343dc_Image_14.jpeg,liked,5.336503566,,,,,,,,,,,,,,
63d5bb0d1cc3800ad1e343dc,,,,,,,,,,,,,,,,,,,,,,,,c,0.0,0.9956,,space,0.6124,0.0,0.0,0.0,0.0,1.0,,,
63d5bb0d1cc3800ad1e343dc,,,,,,,,,NAN,,NAN,,0.0,44.0,44.0,44.0,1.0,45.0,Alex,Neutral,Participant_Images/63d5bb0d1cc3800ad1e343dc/63d5bb0d1cc3800ad1e343dc_Images/63d5bb0d1cc3800ad1e343dc_Image_3.jpeg,liked,2.642157193,,,,,,,,,,,,,,
63d5bb0d1cc3800ad1e343dc,,,,,,,space,0.9939,NAN,,NAN,,0.0,45.0,45.0,45.0,1.0,46.0,Alex,Neutral,Participant_Images/63d5bb0d1cc3800ad1e343dc/63d5bb0d1cc3800ad1e343dc_Images/63d5bb0d1cc3800ad1e343dc_Image_16.jpeg,liked,4.456234322,,,,,,,,,,,,,,
63d5bb0d1cc3800ad1e343dc,,,,,,,space,0.8612,NAN,,NAN,,0.0,46.0,46.0,46.0,1.0,47.0,Alex,Neutral,Participant_Images/63d5bb0d1cc3800ad1e343dc/63d5bb0d1cc3800ad1e343dc_Images/63d5bb0d1cc3800ad1e343dc_Image_2.jpeg,did not like,4.438512181,,,,,,,,,,,,,,
63d5bb0d1cc3800ad1e343dc,,,,,,,space,0.836,NAN,,NAN,,0.0,47.0,47.0,47.0,1.0,48.0,Alex,Neutral,Participant_Images/63d5bb0d1cc3800ad1e343dc/63d5bb0d1cc3800ad1e343dc_Images/63d5bb0d1cc3800ad1e343dc_Image_30.jpeg,did not like,2.682944783,,,,,,,,,,,,,,
63d5bb0d1cc3800ad1e343dc,,,,,,,space,0.7512,NAN,,NAN,,0.0,48.0,48.0,48.0,1.0,49.0,Alex,Neutral,Participant_Images/63d5bb0d1cc3800ad1e343dc/63d5bb0d1cc3800ad1e343dc_Images/63d5bb0d1cc3800ad1e343dc_Image_19.jpeg,liked,4.51984296,,,,,,,,,,,,,,
63d5bb0d1cc3800ad1e343dc,,,,,,,,,,,,,,,,,,,,,,,,c,0.0,0.898,,space,0.8675,0.0,0.0,0.0,0.0,1.0,,,
63d5bb0d1cc3800ad1e343dc,,,,,,,,,NAN,,NAN,,0.0,49.0,49.0,49.0,1.0,50.0,Alex,Neutral,Participant_Images/63d5bb0d1cc3800ad1e343dc/63d5bb0d1cc3800ad1e343dc_Images/63d5bb0d1cc3800ad1e343dc_Image_11.jpeg,liked,3.195382774,,,,,,,,,,,,,,
63d5bb0d1cc3800ad1e343dc,,,,,,,space,0.3441,NAN,,NAN,,0.0,50.0,50.0,50.0,1.0,51.0,Alex,Neutral,Participant_Images/63d5bb0d1cc3800ad1e343dc/63d5bb0d1cc3800ad1e343dc_Images/63d5bb0d1cc3800ad1e343dc_Image_20.jpeg,did not like,1.779333479,,,,,,,,,,,,,,
63d5bb0d1cc3800ad1e343dc,,,,,,,space,0.9146,NAN,,NAN,,0.0,51.0,51.0,51.0,1.0,52.0,Alex,Neutral,Participant_Images/63d5bb0d1cc3800ad1e343dc/63d5bb0d1cc3800ad1e343dc_Images/63d5bb0d1cc3800ad1e343dc_Image_6.jpeg,did not like,4.312468682,,,,,,,,,,,,,,
63d5bb0d1cc3800ad1e343dc,,,,,,,space,1.1473,NAN,,NAN,,0.0,52.0,52.0,52.0,1.0,53.0,Alex,Neutral,Participant_Images/63d5bb0d1cc3800ad1e343dc/63d5bb0d1cc3800ad1e343dc_Images/63d5bb0d1cc3800ad1e343dc_Image_17.jpeg,liked,4.940433059,,,,,,,,,,,,,,
63d5bb0d1cc3800ad1e343dc,,,,,,,space,1.1663,NAN,,NAN,,0.0,53.0,53.0,53.0,1.0,54.0,Alex,Neutral,Participant_Images/63d5bb0d1cc3800ad1e343dc/63d5bb0d1cc3800ad1e343dc_Images/63d5bb0d1cc3800ad1e343dc_Image_27.jpeg,liked,2.7105123,,,,,,,,,,,,,,
63d5bb0d1cc3800ad1e343dc,,,,,,,,,,,,,,,,,,,,,,,,c,0.0,1.0066,,space,1.4319,0.0,0.0,0.0,0.0,1.0,,,
63d5bb0d1cc3800ad1e343dc,,,,,,,,,NAN,,NAN,,0.0,54.0,54.0,54.0,1.0,55.0,Alex,Neutral,Participant_Images/63d5bb0d1cc3800ad1e343dc/63d5bb0d1cc3800ad1e343dc_Images/63d5bb0d1cc3800ad1e343dc_Image_25.jpeg,liked,3.602308302,,,,,,,,,,,,,,
63d5bb0d1cc3800ad1e343dc,,,,,,,space,0.8,NAN,,NAN,,0.0,55.0,55.0,55.0,1.0,56.0,Alex,Neutral,Participant_Images/63d5bb0d1cc3800ad1e343dc/63d5bb0d1cc3800ad1e343dc_Images/63d5bb0d1cc3800ad1e343dc_Image_7.jpeg,did not like,4.106391878,,,,,,,,,,,,,,
63d5bb0d1cc3800ad1e343dc,,,,,,,space,1.0265,NAN,,NAN,,0.0,56.0,56.0,56.0,1.0,57.0,Alex,Neutral,Participant_Images/63d5bb0d1cc3800ad1e343dc/63d5bb0d1cc3800ad1e343dc_Images/63d5bb0d1cc3800ad1e343dc_Image_8.jpeg,liked,3.799433026,,,,,,,,,,,,,,
63d5bb0d1cc3800ad1e343dc,,,,,,,space,0.8086,NAN,,NAN,,0.0,57.0,57.0,57.0,1.0,58.0,Alex,Neutral,Participant_Images/63d5bb0d1cc3800ad1e343dc/63d5bb0d1cc3800ad1e343dc_Images/63d5bb0d1cc3800ad1e343dc_Image_9.jpeg,did not like,5.246980764,,,,,,,,,,,,,,
63d5bb0d1cc3800ad1e343dc,,,,,,,space,0.8892,NAN,,NAN,,0.0,58.0,58.0,58.0,1.0,59.0,Alex,Neutral,Participant_Images/63d5bb0d1cc3800ad1e343dc/63d5bb0d1cc3800ad1e343dc_Images/63d5bb0d1cc3800ad1e343dc_Image_23.jpeg,did not like,3.30081769,,,,,,,,,,,,,,
63d5bb0d1cc3800ad1e343dc,,,,,,,,,,,,,,,,,,,,,,,,c,0.0,0.4824,,space,1.0508,0.0,0.0,0.0,0.0,1.0,,,
63d5bb0d1cc3800ad1e343dc,,,,,,,,,3,,2,,0.0,59.0,59.0,59.0,1.0,60.0,Alex,Neutral,Participant_Images/63d5bb0d1cc3800ad1e343dc/63d5bb0d1cc3800ad1e343dc_Images/63d5bb0d1cc3800ad1e343dc_Image_12.jpeg,liked,1.661473164,,,,,,,,,,,,,,
63d5bb0d1cc3800ad1e343dc,,,,,space,1.9376,space,0.8254,NAN,,NAN,,0.0,60.0,60.0,60.0,1.0,61.0,Taylor,Rej,Participant_Images/63d5bb0d1cc3800ad1e343dc/63d5bb0d1cc3800ad1e343dc_Images/63d5bb0d1cc3800ad1e343dc_Image_29.jpeg,did not like,3.613205605,,,,,,,,,,,,,,
63d5bb0d1cc3800ad1e343dc,,,,,,,space,1.2646,NAN,,NAN,,0.0,61.0,61.0,61.0,1.0,62.0,Taylor,Rej,Participant_Images/63d5bb0d1cc3800ad1e343dc/63d5bb0d1cc3800ad1e343dc_Images/63d5bb0d1cc3800ad1e343dc_Image_18.jpeg,did not like,4.988446431,,,,,,,,,,,,,,
63d5bb0d1cc3800ad1e343dc,,,,,,,space,0.4506,NAN,,NAN,,0.0,62.0,62.0,62.0,1.0,63.0,Taylor,Rej,Participant_Images/63d5bb0d1cc3800ad1e343dc/63d5bb0d1cc3800ad1e343dc_Images/63d5bb0d1cc3800ad1e343dc_Image_2.jpeg,did not like,3.470791822,,,,,,,,,,,,,,
63d5bb0d1cc3800ad1e343dc,,,,,,,space,0.6074,NAN,,NAN,,0.0,63.0,63.0,63.0,1.0,64.0,Taylor,Rej,Participant_Images/63d5bb0d1cc3800ad1e343dc/63d5bb0d1cc3800ad1e343dc_Images/63d5bb0d1cc3800ad1e343dc_Image_17.jpeg,did not like,3.820572462,,,,,,,,,,,,,,
63d5bb0d1cc3800ad1e343dc,,,,,,,,,,,,,,,,,,,,,,,,c,0.0,0.9152,,space,0.8869,0.0,0.0,0.0,0.0,1.0,,,
63d5bb0d1cc3800ad1e343dc,,,,,,,,,NAN,,NAN,,0.0,64.0,64.0,64.0,1.0,65.0,Taylor,Rej,Participant_Images/63d5bb0d1cc3800ad1e343dc/63d5bb0d1cc3800ad1e343dc_Images/63d5bb0d1cc3800ad1e343dc_Image_23.jpeg,did not like,2.455989137,,,,,,,,,,,,,,
63d5bb0d1cc3800ad1e343dc,,,,,,,space,1.0097,NAN,,NAN,,0.0,65.0,65.0,65.0,1.0,66.0,Taylor,Rej,Participant_Images/63d5bb0d1cc3800ad1e343dc/63d5bb0d1cc3800ad1e343dc_Images/63d5bb0d1cc3800ad1e343dc_Image_12.jpeg,did not like,3.79605092,,,,,,,,,,,,,,
63d5bb0d1cc3800ad1e343dc,,,,,,,space,0.7713,NAN,,NAN,,0.0,66.0,66.0,66.0,1.0,67.0,Taylor,Rej,Participant_Images/63d5bb0d1cc3800ad1e343dc/63d5bb0d1cc3800ad1e343dc_Images/63d5bb0d1cc3800ad1e343dc_Image_26.jpeg,liked,3.562416326,,,,,,,,,,,,,,
63d5bb0d1cc3800ad1e343dc,,,,,,,space,0.3679,NAN,,NAN,,0.0,67.0,67.0,67.0,1.0,68.0,Taylor,Rej,Participant_Images/63d5bb0d1cc3800ad1e343dc/63d5bb0d1cc3800ad1e343dc_Images/63d5bb0d1cc3800ad1e343dc_Image_4.jpeg,did not like,2.843822497,,,,,,,,,,,,,,
63d5bb0d1cc3800ad1e343dc,,,,,,,space,0.9297,NAN,,NAN,,0.0,68.0,68.0,68.0,1.0,69.0,Taylor,Rej,Participant_Images/63d5bb0d1cc3800ad1e343dc/63d5bb0d1cc3800ad1e343dc_Images/63d5bb0d1cc3800ad1e343dc_Image_24.jpeg,did not like,3.546495948,,,,,,,,,,,,,,
63d5bb0d1cc3800ad1e343dc,,,,,,,,,,,,,,,,,,,,,,,,c,0.0,1.0926,,space,1.1106,0.0,0.0,0.0,0.0,1.0,,,
63d5bb0d1cc3800ad1e343dc,,,,,,,,,NAN,,NAN,,0.0,69.0,69.0,69.0,1.0,70.0,Taylor,Rej,Participant_Images/63d5bb0d1cc3800ad1e343dc/63d5bb0d1cc3800ad1e343dc_Images/63d5bb0d1cc3800ad1e343dc_Image_6.jpeg,did not like,1.672012706,,,,,,,,,,,,,,
63d5bb0d1cc3800ad1e343dc,,,,,,,space,1.4908,NAN,,NAN,,0.0,70.0,70.0,70.0,1.0,71.0,Taylor,Rej,Participant_Images/63d5bb0d1cc3800ad1e343dc/63d5bb0d1cc3800ad1e343dc_Images/63d5bb0d1cc3800ad1e343dc_Image_9.jpeg,did not like,4.942172136,,,,,,,,,,,,,,
63d5bb0d1cc3800ad1e343dc,,,,,,,space,0.851,NAN,,NAN,,0.0,71.0,71.0,71.0,1.0,72.0,Taylor,Rej,Participant_Images/63d5bb0d1cc3800ad1e343dc/63d5bb0d1cc3800ad1e343dc_Images/63d5bb0d1cc3800ad1e343dc_Image_27.jpeg,did not like,2.50187214,,,,,,,,,,,,,,
63d5bb0d1cc3800ad1e343dc,,,,,,,space,0.7019,NAN,,NAN,,0.0,72.0,72.0,72.0,1.0,73.0,Taylor,Rej,Participant_Images/63d5bb0d1cc3800ad1e343dc/63d5bb0d1cc3800ad1e343dc_Images/63d5bb0d1cc3800ad1e343dc_Image_20.jpeg,did not like,2.071164779,,,,,,,,,,,,,,
63d5bb0d1cc3800ad1e343dc,,,,,,,space,1.07,NAN,,NAN,,0.0,73.0,73.0,73.0,1.0,74.0,Taylor,Rej,Participant_Images/63d5bb0d1cc3800ad1e343dc/63d5bb0d1cc3800ad1e343dc_Images/63d5bb0d1cc3800ad1e343dc_Image_25.jpeg,liked,5.336503566,,,,,,,,,,,,,,
63d5bb0d1cc3800ad1e343dc,,,,,,,,,,,,,,,,,,,,,,,,c,0.0,1.2562,,space,0.9786,0.0,0.0,0.0,0.0,1.0,,,
63d5bb0d1cc3800ad1e343dc,,,,,,,,,NAN,,NAN,,0.0,74.0,74.0,74.0,1.0,75.0,Taylor,Rej,Participant_Images/63d5bb0d1cc3800ad1e343dc/63d5bb0d1cc3800ad1e343dc_Images/63d5bb0d1cc3800ad1e343dc_Image_5.jpeg,did not like,2.642157193,,,,,,,,,,,,,,
63d5bb0d1cc3800ad1e343dc,,,,,,,space,2.1458,NAN,,NAN,,0.0,75.0,75.0,75.0,1.0,76.0,Taylor,Rej,Participant_Images/63d5bb0d1cc3800ad1e343dc/63d5bb0d1cc3800ad1e343dc_Images/63d5bb0d1cc3800ad1e343dc_Image_13.jpeg,did not like,4.456234322,,,,,,,,,,,,,,
63d5bb0d1cc3800ad1e343dc,,,,,,,space,0.9097,NAN,,NAN,,0.0,76.0,76.0,76.0,1.0,77.0,Taylor,Rej,Participant_Images/63d5bb0d1cc3800ad1e343dc/63d5bb0d1cc3800ad1e343dc_Images/63d5bb0d1cc3800ad1e343dc_Image_16.jpeg,did not like,4.438512181,,,,,,,,,,,,,,
63d5bb0d1cc3800ad1e343dc,,,,,,,space,0.8861,NAN,,NAN,,0.0,77.0,77.0,77.0,1.0,78.0,Taylor,Rej,Participant_Images/63d5bb0d1cc3800ad1e343dc/63d5bb0d1cc3800ad1e343dc_Images/63d5bb0d1cc3800ad1e343dc_Image_22.jpeg,did not like,2.682944783,,,,,,,,,,,,,,
63d5bb0d1cc3800ad1e343dc,,,,,,,space,1.164,NAN,,NAN,,0.0,78.0,78.0,78.0,1.0,79.0,Taylor,Rej,Participant_Images/63d5bb0d1cc3800ad1e343dc/63d5bb0d1cc3800ad1e343dc_Images/63d5bb0d1cc3800ad1e343dc_Image_19.jpeg,did not like,4.51984296,,,,,,,,,,,,,,
63d5bb0d1cc3800ad1e343dc,,,,,,,,,,,,,,,,,,,,,,,,c,0.0,1.3384,,space,0.4871,0.0,0.0,0.0,0.0,1.0,,,
63d5bb0d1cc3800ad1e343dc,,,,,,,,,NAN,,NAN,,0.0,79.0,79.0,79.0,1.0,80.0,Taylor,Rej,Participant_Images/63d5bb0d1cc3800ad1e343dc/63d5bb0d1cc3800ad1e343dc_Images/63d5bb0d1cc3800ad1e343dc_Image_1.jpeg,did not like,3.195382774,,,,,,,,,,,,,,
63d5bb0d1cc3800ad1e343dc,,,,,,,space,0.7423,NAN,,NAN,,0.0,80.0,80.0,80.0,1.0,81.0,Taylor,Rej,Participant_Images/63d5bb0d1cc3800ad1e343dc/63d5bb0d1cc3800ad1e343dc_Images/63d5bb0d1cc3800ad1e343dc_Image_8.jpeg,liked,1.779333479,,,,,,,,,,,,,,
63d5bb0d1cc3800ad1e343dc,,,,,,,space,1.8625,NAN,,NAN,,0.0,81.0,81.0,81.0,1.0,82.0,Taylor,Rej,Participant_Images/63d5bb0d1cc3800ad1e343dc/63d5bb0d1cc3800ad1e343dc_Images/63d5bb0d1cc3800ad1e343dc_Image_28.jpeg,did not like,4.312468682,,,,,,,,,,,,,,
63d5bb0d1cc3800ad1e343dc,,,,,,,space,1.4434,NAN,,NAN,,0.0,82.0,82.0,82.0,1.0,83.0,Taylor,Rej,Participant_Images/63d5bb0d1cc3800ad1e343dc/63d5bb0d1cc3800ad1e343dc_Images/63d5bb0d1cc3800ad1e343dc_Image_7.jpeg,liked,4.940433059,,,,,,,,,,,,,,
63d5bb0d1cc3800ad1e343dc,,,,,,,space,1.0346,NAN,,NAN,,0.0,83.0,83.0,83.0,1.0,84.0,Taylor,Rej,Participant_Images/63d5bb0d1cc3800ad1e343dc/63d5bb0d1cc3800ad1e343dc_Images/63d5bb0d1cc3800ad1e343dc_Image_30.jpeg,liked,2.7105123,,,,,,,,,,,,,,
63d5bb0d1cc3800ad1e343dc,,,,,,,,,,,,,,,,,,,,,,,,c,0.0,0.9907,,space,1.097,0.0,0.0,0.0,0.0,1.0,,,
63d5bb0d1cc3800ad1e343dc,,,,,,,,,NAN,,NAN,,0.0,84.0,84.0,84.0,1.0,85.0,Taylor,Rej,Participant_Images/63d5bb0d1cc3800ad1e343dc/63d5bb0d1cc3800ad1e343dc_Images/63d5bb0d1cc3800ad1e343dc_Image_15.jpeg,liked,3.602308302,,,,,,,,,,,,,,
63d5bb0d1cc3800ad1e343dc,,,,,,,space,1.0809,NAN,,NAN,,0.0,85.0,85.0,85.0,1.0,86.0,Taylor,Rej,Participant_Images/63d5bb0d1cc3800ad1e343dc/63d5bb0d1cc3800ad1e343dc_Images/63d5bb0d1cc3800ad1e343dc_Image_10.jpeg,liked,4.106391878,,,,,,,,,,,,,,
63d5bb0d1cc3800ad1e343dc,,,,,,,space,0.4484,NAN,,NAN,,0.0,86.0,86.0,86.0,1.0,87.0,Taylor,Rej,Participant_Images/63d5bb0d1cc3800ad1e343dc/63d5bb0d1cc3800ad1e343dc_Images/63d5bb0d1cc3800ad1e343dc_Image_21.jpeg,did not like,3.799433026,,,,,,,,,,,,,,
63d5bb0d1cc3800ad1e343dc,,,,,,,space,0.7325,NAN,,NAN,,0.0,87.0,87.0,87.0,1.0,88.0,Taylor,Rej,Participant_Images/63d5bb0d1cc3800ad1e343dc/63d5bb0d1cc3800ad1e343dc_Images/63d5bb0d1cc3800ad1e343dc_Image_14.jpeg,liked,5.246980764,,,,,,,,,,,,,,
63d5bb0d1cc3800ad1e343dc,,,,,,,space,0.5697,NAN,,NAN,,0.0,88.0,88.0,88.0,1.0,89.0,Taylor,Rej,Participant_Images/63d5bb0d1cc3800ad1e343dc/63d5bb0d1cc3800ad1e343dc_Images/63d5bb0d1cc3800ad1e343dc_Image_3.jpeg,liked,3.30081769,,,,,,,,,,,,,,
63d5bb0d1cc3800ad1e343dc,,,,,,,,,,,,,,,,,,,,,,,,c,0.0,1.4586,,space,0.9368,0.0,0.0,0.0,0.0,1.0,,,
63d5bb0d1cc3800ad1e343dc,,,,,,,,,2,,2,,0.0,89.0,89.0,89.0,1.0,90.0,Taylor,Rej,Participant_Images/63d5bb0d1cc3800ad1e343dc/63d5bb0d1cc3800ad1e343dc_Images/63d5bb0d1cc3800ad1e343dc_Image_11.jpeg,did not like,1.661473164,,,,,,,,,,,,,,
63d5bb0d1cc3800ad1e343dc,,,,,space,3.1786,space,1.5318,NAN,,NAN,,0.0,90.0,90.0,90.0,1.0,91.0,Charlie,Rej,Participant_Images/63d5bb0d1cc3800ad1e343dc/63d5bb0d1cc3800ad1e343dc_Images/63d5bb0d1cc3800ad1e343dc_Image_11.jpeg,did not like,3.613205605,,,,,,,,,,,,,,
63d5bb0d1cc3800ad1e343dc,,,,,,,space,1.0963,NAN,,NAN,,0.0,91.0,91.0,91.0,1.0,92.0,Charlie,Rej,Participant_Images/63d5bb0d1cc3800ad1e343dc/63d5bb0d1cc3800ad1e343dc_Images/63d5bb0d1cc3800ad1e343dc_Image_24.jpeg,liked,4.988446431,,,,,,,,,,,,,,
63d5bb0d1cc3800ad1e343dc,,,,,,,space,0.8587,NAN,,NAN,,0.0,92.0,92.0,92.0,1.0,93.0,Charlie,Rej,Participant_Images/63d5bb0d1cc3800ad1e343dc/63d5bb0d1cc3800ad1e343dc_Images/63d5bb0d1cc3800ad1e343dc_Image_29.jpeg,did not like,3.470791822,,,,,,,,,,,,,,
63d5bb0d1cc3800ad1e343dc,,,,,,,space,1.2885,NAN,,NAN,,0.0,93.0,93.0,93.0,1.0,94.0,Charlie,Rej,Participant_Images/63d5bb0d1cc3800ad1e343dc/63d5bb0d1cc3800ad1e343dc_Images/63d5bb0d1cc3800ad1e343dc_Image_22.jpeg,did not like,3.820572462,,,,,,,,,,,,,,
63d5bb0d1cc3800ad1e343dc,,,,,,,,,,,,,,,,,,,,,,,,c,0.0,1.4247,,space,2.0213,0.0,0.0,0.0,0.0,1.0,,,
63d5bb0d1cc3800ad1e343dc,,,,,,,,,NAN,,NAN,,0.0,94.0,94.0,94.0,1.0,95.0,Charlie,Rej,Participant_Images/63d5bb0d1cc3800ad1e343dc/63d5bb0d1cc3800ad1e343dc_Images/63d5bb0d1cc3800ad1e343dc_Image_10.jpeg,liked,2.455989137,,,,,,,,,,,,,,
63d5bb0d1cc3800ad1e343dc,,,,,,,space,1.5044,NAN,,NAN,,0.0,95.0,95.0,95.0,1.0,96.0,Charlie,Rej,Participant_Images/63d5bb0d1cc3800ad1e343dc/63d5bb0d1cc3800ad1e343dc_Images/63d5bb0d1cc3800ad1e343dc_Image_16.jpeg,did not like,3.79605092,,,,,,,,,,,,,,
63d5bb0d1cc3800ad1e343dc,,,,,,,space,1.0732,NAN,,NAN,,0.0,96.0,96.0,96.0,1.0,97.0,Charlie,Rej,Participant_Images/63d5bb0d1cc3800ad1e343dc/63d5bb0d1cc3800ad1e343dc_Images/63d5bb0d1cc3800ad1e343dc_Image_17.jpeg,did not like,3.562416326,,,,,,,,,,,,,,
63d5bb0d1cc3800ad1e343dc,,,,,,,space,0.7071,NAN,,NAN,,0.0,97.0,97.0,97.0,1.0,98.0,Charlie,Rej,Participant_Images/63d5bb0d1cc3800ad1e343dc/63d5bb0d1cc3800ad1e343dc_Images/63d5bb0d1cc3800ad1e343dc_Image_6.jpeg,did not like,2.843822497,,,,,,,,,,,,,,
63d5bb0d1cc3800ad1e343dc,,,,,,,space,0.8281,NAN,,NAN,,0.0,98.0,98.0,98.0,1.0,99.0,Charlie,Rej,Participant_Images/63d5bb0d1cc3800ad1e343dc/63d5bb0d1cc3800ad1e343dc_Images/63d5bb0d1cc3800ad1e343dc_Image_1.jpeg,did not like,3.546495948,,,,,,,,,,,,,,
63d5bb0d1cc3800ad1e343dc,,,,,,,,,,,,,,,,,,,,,,,,c,0.0,1.8479,,space,1.291,0.0,0.0,0.0,0.0,1.0,,,
63d5bb0d1cc3800ad1e343dc,,,,,,,,,NAN,,NAN,,0.0,99.0,99.0,99.0,1.0,100.0,Charlie,Rej,Participant_Images/63d5bb0d1cc3800ad1e343dc/63d5bb0d1cc3800ad1e343dc_Images/63d5bb0d1cc3800ad1e343dc_Image_13.jpeg,did not like,1.672012706,,,,,,,,,,,,,,
63d5bb0d1cc3800ad1e343dc,,,,,,,space,0.6874,NAN,,NAN,,0.0,100.0,100.0,100.0,1.0,101.0,Charlie,Rej,Participant_Images/63d5bb0d1cc3800ad1e343dc/63d5bb0d1cc3800ad1e343dc_Images/63d5bb0d1cc3800ad1e343dc_Image_30.jpeg,did not like,4.942172136,,,,,,,,,,,,,,
63d5bb0d1cc3800ad1e343dc,,,,,,,space,0.5836,NAN,,NAN,,0.0,101.0,101.0,101.0,1.0,102.0,Charlie,Rej,Participant_Images/63d5bb0d1cc3800ad1e343dc/63d5bb0d1cc3800ad1e343dc_Images/63d5bb0d1cc3800ad1e343dc_Image_9.jpeg,did not like,2.50187214,,,,,,,,,,,,,,
63d5bb0d1cc3800ad1e343dc,,,,,,,space,0.8589,NAN,,NAN,,0.0,102.0,102.0,102.0,1.0,103.0,Charlie,Rej,Participant_Images/63d5bb0d1cc3800ad1e343dc/63d5bb0d1cc3800ad1e343dc_Images/63d5bb0d1cc3800ad1e343dc_Image_15.jpeg,liked,2.071164779,,,,,,,,,,,,,,
63d5bb0d1cc3800ad1e343dc,,,,,,,space,1.5421,NAN,,NAN,,0.0,103.0,103.0,103.0,1.0,104.0,Charlie,Rej,Participant_Images/63d5bb0d1cc3800ad1e343dc/63d5bb0d1cc3800ad1e343dc_Images/63d5bb0d1cc3800ad1e343dc_Image_7.jpeg,liked,5.336503566,,,,,,,,,,,,,,
63d5bb0d1cc3800ad1e343dc,,,,,,,,,,,,,,,,,,,,,,,,c,0.0,1.0739,,space,1.2083,0.0,0.0,0.0,0.0,1.0,,,
63d5bb0d1cc3800ad1e343dc,,,,,,,,,NAN,,NAN,,0.0,104.0,104.0,104.0,1.0,105.0,Charlie,Rej,Participant_Images/63d5bb0d1cc3800ad1e343dc/63d5bb0d1cc3800ad1e343dc_Images/63d5bb0d1cc3800ad1e343dc_Image_18.jpeg,did not like,2.642157193,,,,,,,,,,,,,,
63d5bb0d1cc3800ad1e343dc,,,,,,,space,0.5773,NAN,,NAN,,0.0,105.0,105.0,105.0,1.0,106.0,Charlie,Rej,Participant_Images/63d5bb0d1cc3800ad1e343dc/63d5bb0d1cc3800ad1e343dc_Images/63d5bb0d1cc3800ad1e343dc_Image_21.jpeg,did not like,4.456234322,,,,,,,,,,,,,,
63d5bb0d1cc3800ad1e343dc,,,,,,,space,1.1419,NAN,,NAN,,0.0,106.0,106.0,106.0,1.0,107.0,Charlie,Rej,Participant_Images/63d5bb0d1cc3800ad1e343dc/63d5bb0d1cc3800ad1e343dc_Images/63d5bb0d1cc3800ad1e343dc_Image_12.jpeg,did not like,4.438512181,,,,,,,,,,,,,,
63d5bb0d1cc3800ad1e343dc,,,,,,,space,3.6462,NAN,,NAN,,0.0,107.0,107.0,107.0,1.0,108.0,Charlie,Rej,Participant_Images/63d5bb0d1cc3800ad1e343dc/63d5bb0d1cc3800ad1e343dc_Images/63d5bb0d1cc3800ad1e343dc_Image_20.jpeg,did not like,2.682944783,,,,,,,,,,,,,,
63d5bb0d1cc3800ad1e343dc,,,,,,,space,0.7537,NAN,,NAN,,0.0,108.0,108.0,108.0,1.0,109.0,Charlie,Rej,Participant_Images/63d5bb0d1cc3800ad1e343dc/63d5bb0d1cc3800ad1e343dc_Images/63d5bb0d1cc3800ad1e343dc_Image_25.jpeg,did not like,4.51984296,,,,,,,,,,,,,,
63d5bb0d1cc3800ad1e343dc,,,,,,,,,,,,,,,,,,,,,,,,c,0.0,1.136,,space,1.6601,0.0,0.0,0.0,0.0,1.0,,,
63d5bb0d1cc3800ad1e343dc,,,,,,,,,NAN,,NAN,,0.0,109.0,109.0,109.0,1.0,110.0,Charlie,Rej,Participant_Images/63d5bb0d1cc3800ad1e343dc/63d5bb0d1cc3800ad1e343dc_Images/63d5bb0d1cc3800ad1e343dc_Image_26.jpeg,did not like,3.195382774,,,,,,,,,,,,,,
63d5bb0d1cc3800ad1e343dc,,,,,,,space,0.7865,NAN,,NAN,,0.0,110.0,110.0,110.0,1.0,111.0,Charlie,Rej,Participant_Images/63d5bb0d1cc3800ad1e343dc/63d5bb0d1cc3800ad1e343dc_Images/63d5bb0d1cc3800ad1e343dc_Image_5.jpeg,liked,1.779333479,,,,,,,,,,,,,,
63d5bb0d1cc3800ad1e343dc,,,,,,,space,0.4904,NAN,,NAN,,0.0,111.0,111.0,111.0,1.0,112.0,Charlie,Rej,Participant_Images/63d5bb0d1cc3800ad1e343dc/63d5bb0d1cc3800ad1e343dc_Images/63d5bb0d1cc3800ad1e343dc_Image_4.jpeg,liked,4.312468682,,,,,,,,,,,,,,
63d5bb0d1cc3800ad1e343dc,,,,,,,space,0.7172,NAN,,NAN,,0.0,112.0,112.0,112.0,1.0,113.0,Charlie,Rej,Participant_Images/63d5bb0d1cc3800ad1e343dc/63d5bb0d1cc3800ad1e343dc_Images/63d5bb0d1cc3800ad1e343dc_Image_27.jpeg,liked,4.940433059,,,,,,,,,,,,,,
63d5bb0d1cc3800ad1e343dc,,,,,,,space,1.0521,NAN,,NAN,,0.0,113.0,113.0,113.0,1.0,114.0,Charlie,Rej,Participant_Images/63d5bb0d1cc3800ad1e343dc/63d5bb0d1cc3800ad1e343dc_Images/63d5bb0d1cc3800ad1e343dc_Image_14.jpeg,did not like,2.7105123,,,,,,,,,,,,,,
63d5bb0d1cc3800ad1e343dc,,,,,,,,,,,,,,,,,,,,,,,,c,0.0,1.0098,,space,1.0646,0.0,0.0,0.0,0.0,1.0,,,
63d5bb0d1cc3800ad1e343dc,,,,,,,,,NAN,,NAN,,0.0,114.0,114.0,114.0,1.0,115.0,Charlie,Rej,Participant_Images/63d5bb0d1cc3800ad1e343dc/63d5bb0d1cc3800ad1e343dc_Images/63d5bb0d1cc3800ad1e343dc_Image_2.jpeg,liked,3.602308302,,,,,,,,,,,,,,
63d5bb0d1cc3800ad1e343dc,,,,,,,space,0.6924,NAN,,NAN,,0.0,115.0,115.0,115.0,1.0,116.0,Charlie,Rej,Participant_Images/63d5bb0d1cc3800ad1e343dc/63d5bb0d1cc3800ad1e343dc_Images/63d5bb0d1cc3800ad1e343dc_Image_28.jpeg,did not like,4.106391878,,,,,,,,,,,,,,
63d5bb0d1cc3800ad1e343dc,,,,,,,space,1.0174,NAN,,NAN,,0.0,116.0,116.0,116.0,1.0,117.0,Charlie,Rej,Participant_Images/63d5bb0d1cc3800ad1e343dc/63d5bb0d1cc3800ad1e343dc_Images/63d5bb0d1cc3800ad1e343dc_Image_23.jpeg,did not like,3.799433026,,,,,,,,,,,,,,
63d5bb0d1cc3800ad1e343dc,,,,,,,space,0.5448,NAN,,NAN,,0.0,117.0,117.0,117.0,1.0,118.0,Charlie,Rej,Participant_Images/63d5bb0d1cc3800ad1e343dc/63d5bb0d1cc3800ad1e343dc_Images/63d5bb0d1cc3800ad1e343dc_Image_3.jpeg,did not like,5.246980764,,,,,,,,,,,,,,
63d5bb0d1cc3800ad1e343dc,,,,,,,space,1.1726,NAN,,NAN,,0.0,118.0,118.0,118.0,1.0,119.0,Charlie,Rej,Participant_Images/63d5bb0d1cc3800ad1e343dc/63d5bb0d1cc3800ad1e343dc_Images/63d5bb0d1cc3800ad1e343dc_Image_8.jpeg,liked,3.30081769,,,,,,,,,,,,,,
63d5bb0d1cc3800ad1e343dc,,,,,,,,,,,,,,,,,,,,,,,,c,0.0,1.7046,,space,1.2231,0.0,0.0,0.0,0.0,1.0,,,
63d5bb0d1cc3800ad1e343dc,,,,,,,,,2,,3,,0.0,119.0,119.0,119.0,1.0,120.0,Charlie,Rej,Participant_Images/63d5bb0d1cc3800ad1e343dc/63d5bb0d1cc3800ad1e343dc_Images/63d5bb0d1cc3800ad1e343dc_Image_19.jpeg,did not like,1.661473164,,,,,,,,,,,,,,
63d5bb0d1cc3800ad1e343dc,,,,,space,2.1499,space,0.8074,NAN,,NAN,,0.0,120.0,120.0,120.0,1.0,121.0,Sam,Acc,Participant_Images/63d5bb0d1cc3800ad1e343dc/63d5bb0d1cc3800ad1e343dc_Images/63d5bb0d1cc3800ad1e343dc_Image_24.jpeg,liked,3.613205605,,,,,,,,,,,,,,
63d5bb0d1cc3800ad1e343dc,,,,,,,space,1.1991,NAN,,NAN,,0.0,121.0,121.0,121.0,1.0,122.0,Sam,Acc,Participant_Images/63d5bb0d1cc3800ad1e343dc/63d5bb0d1cc3800ad1e343dc_Images/63d5bb0d1cc3800ad1e343dc_Image_10.jpeg,liked,4.988446431,,,,,,,,,,,,,,
63d5bb0d1cc3800ad1e343dc,,,,,,,space,0.5624,NAN,,NAN,,0.0,122.0,122.0,122.0,1.0,123.0,Sam,Acc,Participant_Images/63d5bb0d1cc3800ad1e343dc/63d5bb0d1cc3800ad1e343dc_Images/63d5bb0d1cc3800ad1e343dc_Image_28.jpeg,liked,3.470791822,,,,,,,,,,,,,,
63d5bb0d1cc3800ad1e343dc,,,,,,,space,0.8498,NAN,,NAN,,0.0,123.0,123.0,123.0,1.0,124.0,Sam,Acc,Participant_Images/63d5bb0d1cc3800ad1e343dc/63d5bb0d1cc3800ad1e343dc_Images/63d5bb0d1cc3800ad1e343dc_Image_11.jpeg,did not like,3.820572462,,,,,,,,,,,,,,
63d5bb0d1cc3800ad1e343dc,,,,,,,,,,,,,,,,,,,,,,,,c,0.0,1.1245,,space,1.3811,0.0,0.0,0.0,0.0,1.0,,,
63d5bb0d1cc3800ad1e343dc,,,,,,,,,NAN,,NAN,,0.0,124.0,124.0,124.0,1.0,125.0,Sam,Acc,Participant_Images/63d5bb0d1cc3800ad1e343dc/63d5bb0d1cc3800ad1e343dc_Images/63d5bb0d1cc3800ad1e343dc_Image_8.jpeg,liked,2.455989137,,,,,,,,,,,,,,
63d5bb0d1cc3800ad1e343dc,,,,,,,space,1.0277,NAN,,NAN,,0.0,125.0,125.0,125.0,1.0,126.0,Sam,Acc,Participant_Images/63d5bb0d1cc3800ad1e343dc/63d5bb0d1cc3800ad1e343dc_Images/63d5bb0d1cc3800ad1e343dc_Image_5.jpeg,did not like,3.79605092,,,,,,,,,,,,,,
63d5bb0d1cc3800ad1e343dc,,,,,,,space,1.0509,NAN,,NAN,,0.0,126.0,126.0,126.0,1.0,127.0,Sam,Acc,Participant_Images/63d5bb0d1cc3800ad1e343dc/63d5bb0d1cc3800ad1e343dc_Images/63d5bb0d1cc3800ad1e343dc_Image_1.jpeg,liked,3.562416326,,,,,,,,,,,,,,
63d5bb0d1cc3800ad1e343dc,,,,,,,space,0.8286,NAN,,NAN,,0.0,127.0,127.0,127.0,1.0,128.0,Sam,Acc,Participant_Images/63d5bb0d1cc3800ad1e343dc/63d5bb0d1cc3800ad1e343dc_Images/63d5bb0d1cc3800ad1e343dc_Image_18.jpeg,liked,2.843822497,,,,,,,,,,,,,,
63d5bb0d1cc3800ad1e343dc,,,,,,,space,0.6014,NAN,,NAN,,0.0,128.0,128.0,128.0,1.0,129.0,Sam,Acc,Participant_Images/63d5bb0d1cc3800ad1e343dc/63d5bb0d1cc3800ad1e343dc_Images/63d5bb0d1cc3800ad1e343dc_Image_30.jpeg,liked,3.546495948,,,,,,,,,,,,,,
63d5bb0d1cc3800ad1e343dc,,,,,,,,,,,,,,,,,,,,,,,,c,0.0,1.1333,,space,0.8782,0.0,0.0,0.0,0.0,1.0,,,
63d5bb0d1cc3800ad1e343dc,,,,,,,,,NAN,,NAN,,0.0,129.0,129.0,129.0,1.0,130.0,Sam,Acc,Participant_Images/63d5bb0d1cc3800ad1e343dc/63d5bb0d1cc3800ad1e343dc_Images/63d5bb0d1cc3800ad1e343dc_Image_3.jpeg,did not like,1.672012706,,,,,,,,,,,,,,
63d5bb0d1cc3800ad1e343dc,,,,,,,space,0.8196,NAN,,NAN,,0.0,130.0,130.0,130.0,1.0,131.0,Sam,Acc,Participant_Images/63d5bb0d1cc3800ad1e343dc/63d5bb0d1cc3800ad1e343dc_Images/63d5bb0d1cc3800ad1e343dc_Image_4.jpeg,liked,4.942172136,,,,,,,,,,,,,,
63d5bb0d1cc3800ad1e343dc,,,,,,,space,0.7321,NAN,,NAN,,0.0,131.0,131.0,131.0,1.0,132.0,Sam,Acc,Participant_Images/63d5bb0d1cc3800ad1e343dc/63d5bb0d1cc3800ad1e343dc_Images/63d5bb0d1cc3800ad1e343dc_Image_9.jpeg,liked,2.50187214,,,,,,,,,,,,,,
63d5bb0d1cc3800ad1e343dc,,,,,,,space,0.9044,NAN,,NAN,,0.0,132.0,132.0,132.0,1.0,133.0,Sam,Acc,Participant_Images/63d5bb0d1cc3800ad1e343dc/63d5bb0d1cc3800ad1e343dc_Images/63d5bb0d1cc3800ad1e343dc_Image_6.jpeg,liked,2.071164779,,,,,,,,,,,,,,
63d5bb0d1cc3800ad1e343dc,,,,,,,space,0.4959,NAN,,NAN,,0.0,133.0,133.0,133.0,1.0,134.0,Sam,Acc,Participant_Images/63d5bb0d1cc3800ad1e343dc/63d5bb0d1cc3800ad1e343dc_Images/63d5bb0d1cc3800ad1e343dc_Image_12.jpeg,liked,5.336503566,,,,,,,,,,,,,,
63d5bb0d1cc3800ad1e343dc,,,,,,,,,,,,,,,,,,,,,,,,c,0.0,1.4102,,space,0.9356,0.0,0.0,0.0,0.0,1.0,,,
63d5bb0d1cc3800ad1e343dc,,,,,,,,,NAN,,NAN,,0.0,134.0,134.0,134.0,1.0,135.0,Sam,Acc,Participant_Images/63d5bb0d1cc3800ad1e343dc/63d5bb0d1cc3800ad1e343dc_Images/63d5bb0d1cc3800ad1e343dc_Image_19.jpeg,liked,2.642157193,,,,,,,,,,,,,,
63d5bb0d1cc3800ad1e343dc,,,,,,,space,0.9694,NAN,,NAN,,0.0,135.0,135.0,135.0,1.0,136.0,Sam,Acc,Participant_Images/63d5bb0d1cc3800ad1e343dc/63d5bb0d1cc3800ad1e343dc_Images/63d5bb0d1cc3800ad1e343dc_Image_25.jpeg,did not like,4.456234322,,,,,,,,,,,,,,
63d5bb0d1cc3800ad1e343dc,,,,,,,space,0.7399,NAN,,NAN,,0.0,136.0,136.0,136.0,1.0,137.0,Sam,Acc,Participant_Images/63d5bb0d1cc3800ad1e343dc/63d5bb0d1cc3800ad1e343dc_Images/63d5bb0d1cc3800ad1e343dc_Image_7.jpeg,liked,4.438512181,,,,,,,,,,,,,,
63d5bb0d1cc3800ad1e343dc,,,,,,,space,0.8066,NAN,,NAN,,0.0,137.0,137.0,137.0,1.0,138.0,Sam,Acc,Participant_Images/63d5bb0d1cc3800ad1e343dc/63d5bb0d1cc3800ad1e343dc_Images/63d5bb0d1cc3800ad1e343dc_Image_16.jpeg,liked,2.682944783,,,,,,,,,,,,,,
63d5bb0d1cc3800ad1e343dc,,,,,,,space,0.7884,NAN,,NAN,,0.0,138.0,138.0,138.0,1.0,139.0,Sam,Acc,Participant_Images/63d5bb0d1cc3800ad1e343dc/63d5bb0d1cc3800ad1e343dc_Images/63d5bb0d1cc3800ad1e343dc_Image_21.jpeg,liked,4.51984296,,,,,,,,,,,,,,
63d5bb0d1cc3800ad1e343dc,,,,,,,,,,,,,,,,,,,,,,,,c,0.0,1.1163,,space,0.835,0.0,0.0,0.0,0.0,1.0,,,
63d5bb0d1cc3800ad1e343dc,,,,,,,,,NAN,,NAN,,0.0,139.0,139.0,139.0,1.0,140.0,Sam,Acc,Participant_Images/63d5bb0d1cc3800ad1e343dc/63d5bb0d1cc3800ad1e343dc_Images/63d5bb0d1cc3800ad1e343dc_Image_15.jpeg,liked,3.195382774,,,,,,,,,,,,,,
63d5bb0d1cc3800ad1e343dc,,,,,,,space,0.7866,NAN,,NAN,,0.0,140.0,140.0,140.0,1.0,141.0,Sam,Acc,Participant_Images/63d5bb0d1cc3800ad1e343dc/63d5bb0d1cc3800ad1e343dc_Images/63d5bb0d1cc3800ad1e343dc_Image_13.jpeg,did not like,1.779333479,,,,,,,,,,,,,,
63d5bb0d1cc3800ad1e343dc,,,,,,,space,0.9876,NAN,,NAN,,0.0,141.0,141.0,141.0,1.0,142.0,Sam,Acc,Participant_Images/63d5bb0d1cc3800ad1e343dc/63d5bb0d1cc3800ad1e343dc_Images/63d5bb0d1cc3800ad1e343dc_Image_17.jpeg,liked,4.312468682,,,,,,,,,,,,,,
63d5bb0d1cc3800ad1e343dc,,,,,,,space,0.6151,NAN,,NAN,,0.0,142.0,142.0,142.0,1.0,143.0,Sam,Acc,Participant_Images/63d5bb0d1cc3800ad1e343dc/63d5bb0d1cc3800ad1e343dc_Images/63d5bb0d1cc3800ad1e343dc_Image_23.jpeg,did not like,4.940433059,,,,,,,,,,,,,,
63d5bb0d1cc3800ad1e343dc,,,,,,,space,0.8162,NAN,,NAN,,0.0,143.0,143.0,143.0,1.0,144.0,Sam,Acc,Participant_Images/63d5bb0d1cc3800ad1e343dc/63d5bb0d1cc3800ad1e343dc_Images/63d5bb0d1cc3800ad1e343dc_Image_29.jpeg,did not like,2.7105123,,,,,,,,,,,,,,
63d5bb0d1cc3800ad1e343dc,,,,,,,,,,,,,,,,,,,,,,,,c,0.0,1.0575,,space,1.9395,0.0,0.0,0.0,0.0,1.0,,,
63d5bb0d1cc3800ad1e343dc,,,,,,,,,NAN,,NAN,,0.0,144.0,144.0,144.0,1.0,145.0,Sam,Acc,Participant_Images/63d5bb0d1cc3800ad1e343dc/63d5bb0d1cc3800ad1e343dc_Images/63d5bb0d1cc3800ad1e343dc_Image_20.jpeg,did not like,3.602308302,,,,,,,,,,,,,,
63d5bb0d1cc3800ad1e343dc,,,,,,,space,0.685,NAN,,NAN,,0.0,145.0,145.0,145.0,1.0,146.0,Sam,Acc,Participant_Images/63d5bb0d1cc3800ad1e343dc/63d5bb0d1cc3800ad1e343dc_Images/63d5bb0d1cc3800ad1e343dc_Image_14.jpeg,liked,4.106391878,,,,,,,,,,,,,,
63d5bb0d1cc3800ad1e343dc,,,,,,,space,0.6782,NAN,,NAN,,0.0,146.0,146.0,146.0,1.0,147.0,Sam,Acc,Participant_Images/63d5bb0d1cc3800ad1e343dc/63d5bb0d1cc3800ad1e343dc_Images/63d5bb0d1cc3800ad1e343dc_Image_22.jpeg,did not like,3.799433026,,,,,,,,,,,,,,
63d5bb0d1cc3800ad1e343dc,,,,,,,space,0.7253,NAN,,NAN,,0.0,147.0,147.0,147.0,1.0,148.0,Sam,Acc,Participant_Images/63d5bb0d1cc3800ad1e343dc/63d5bb0d1cc3800ad1e343dc_Images/63d5bb0d1cc3800ad1e343dc_Image_26.jpeg,liked,5.246980764,,,,,,,,,,,,,,
63d5bb0d1cc3800ad1e343dc,,,,,,,space,0.793,NAN,,NAN,,0.0,148.0,148.0,148.0,1.0,149.0,Sam,Acc,Participant_Images/63d5bb0d1cc3800ad1e343dc/63d5bb0d1cc3800ad1e343dc_Images/63d5bb0d1cc3800ad1e343dc_Image_2.jpeg,liked,3.30081769,,,,,,,,,,,,,,
63d5bb0d1cc3800ad1e343dc,,,,,,,,,,,,,,,,,,,,,,,,c,0.0,0.9674,,space,1.0792,0.0,0.0,0.0,0.0,1.0,,,
63d5bb0d1cc3800ad1e343dc,,,,,,,,,4,,3,,0.0,149.0,149.0,149.0,1.0,150.0,Sam,Acc,Participant_Images/63d5bb0d1cc3800ad1e343dc/63d5bb0d1cc3800ad1e343dc_Images/63d5bb0d1cc3800ad1e343dc_Image_27.jpeg,liked,1.661473164,,,,,,,,,,,,,,
63d5bb0d1cc3800ad1e343dc,,,,,,,,,,,,,,,,,,,,,,,,,,,,,,,,,,,,space,2.0982
