endwelcomescreen_keys.keys,endwelcomescreen_keys.rt,endinstructionscreen_keys.keys,endinstructionscreen_keys.rt,endpartnermatch_keys.keys,endpartnermatch_keys.rt,sharenextphoto_key.keys,sharenextphoto_key.rt,salience_rating,key_resp.keys,stress_level,stresslevel_keypress.keys,entiretaskloop.thisRepN,entiretaskloop.thisTrialN,entiretaskloop.thisN,entiretaskloop.thisIndex,entiretaskloop.ran,TrialNumber,Partner,Condition,Photos,Feedback,FeedbackWait,choice_keys.keys,playlottery,resumeafterlottery_keys.keys,resumeafterlottery_keys.rt,lotteryloop.thisRepN,lotteryloop.thisTrialN,lotteryloop.thisN,lotteryloop.thisIndex,lotteryloop.ran,choice_keys.rt,lotteryguess_keys.keys,end_screen_keys.keys,end_screen_keys.rt
space,15.4884,,,,,,,,,,,,,,,,,,,,,,,,,,,,,,,,,,
,,,,,,,,,,,,,,,,,,,,,,,,,,,,,,,,,,,
,,space,12.4394,,,,,,,,,,,,,,,,,,,,,,,,,,,,,,,,
,,,,space,2.3819,space,1.1889,NAN,,NAN,,0,0,0,0,1,1,Riley,Rej,Participant_Images/63e52399159a69bf0ea848c6/63e52399159a69bf0ea848c6_Images/63e52399159a69bf0ea848c6_Image_21.jpeg,did not like,3.613205605,,,,,,,,,,,,,
,,,,,,space,1.1022,NAN,,NAN,,0,1,1,1,1,2,Riley,Rej,Participant_Images/63e52399159a69bf0ea848c6/63e52399159a69bf0ea848c6_Images/63e52399159a69bf0ea848c6_Image_30.jpeg,did not like,4.988446431,,,,,,,,,,,,,
,,,,,,space,1.1312,NAN,,NAN,,0,2,2,2,1,3,Riley,Rej,Participant_Images/63e52399159a69bf0ea848c6/63e52399159a69bf0ea848c6_Images/63e52399159a69bf0ea848c6_Image_11.jpeg,did not like,3.470791822,,,,,,,,,,,,,
,,,,,,space,1.2805,NAN,,NAN,,0,3,3,3,1,4,Riley,Rej,Participant_Images/63e52399159a69bf0ea848c6/63e52399159a69bf0ea848c6_Images/63e52399159a69bf0ea848c6_Image_29.jpeg,did not like,3.820572462,,,,,,,,,,,,,
,,,,,,,,,,,,,,,,,,,,,,,,999,space,2.4583,0,0,0,0,1,,,,
,,,,,,,,NAN,,NAN,,0,4,4,4,1,5,Riley,Rej,Participant_Images/63e52399159a69bf0ea848c6/63e52399159a69bf0ea848c6_Images/63e52399159a69bf0ea848c6_Image_22.jpeg,did not like,2.455989137,,,,,,,,,,,,,
,,,,,,space,0.9367,NAN,,NAN,,0,5,5,5,1,6,Riley,Rej,Participant_Images/63e52399159a69bf0ea848c6/63e52399159a69bf0ea848c6_Images/63e52399159a69bf0ea848c6_Image_14.jpeg,did not like,3.79605092,,,,,,,,,,,,,
,,,,,,space,1.0693,NAN,,NAN,,0,6,6,6,1,7,Riley,Rej,Participant_Images/63e52399159a69bf0ea848c6/63e52399159a69bf0ea848c6_Images/63e52399159a69bf0ea848c6_Image_4.jpeg,did not like,3.562416326,,,,,,,,,,,,,
,,,,,,space,0.8517,NAN,,NAN,,0,7,7,7,1,8,Riley,Rej,Participant_Images/63e52399159a69bf0ea848c6/63e52399159a69bf0ea848c6_Images/63e52399159a69bf0ea848c6_Image_26.jpeg,liked,2.843822497,,,,,,,,,,,,,
,,,,,,space,0.7748,NAN,,NAN,,0,8,8,8,1,9,Riley,Rej,Participant_Images/63e52399159a69bf0ea848c6/63e52399159a69bf0ea848c6_Images/63e52399159a69bf0ea848c6_Image_28.jpeg,did not like,3.546495948,,,,,,,,,,,,,
,,,,,,,,,,,,,,,,,,,,,,,c,0,space,0.9481,0,0,0,0,1,3.6636,,,
,,,,,,,,NAN,,NAN,,0,9,9,9,1,10,Riley,Rej,Participant_Images/63e52399159a69bf0ea848c6/63e52399159a69bf0ea848c6_Images/63e52399159a69bf0ea848c6_Image_8.jpeg,did not like,1.672012706,,,,,,,,,,,,,
,,,,,,space,0.9228,NAN,,NAN,,0,10,10,10,1,11,Riley,Rej,Participant_Images/63e52399159a69bf0ea848c6/63e52399159a69bf0ea848c6_Images/63e52399159a69bf0ea848c6_Image_2.jpeg,did not like,4.942172136,,,,,,,,,,,,,
,,,,,,space,0.7859,NAN,,NAN,,0,11,11,11,1,12,Riley,Rej,Participant_Images/63e52399159a69bf0ea848c6/63e52399159a69bf0ea848c6_Images/63e52399159a69bf0ea848c6_Image_24.jpeg,did not like,2.50187214,,,,,,,,,,,,,
,,,,,,space,0.8304,NAN,,NAN,,0,12,12,12,1,13,Riley,Rej,Participant_Images/63e52399159a69bf0ea848c6/63e52399159a69bf0ea848c6_Images/63e52399159a69bf0ea848c6_Image_1.jpeg,did not like,2.071164779,,,,,,,,,,,,,
,,,,,,space,0.7045,NAN,,NAN,,0,13,13,13,1,14,Riley,Rej,Participant_Images/63e52399159a69bf0ea848c6/63e52399159a69bf0ea848c6_Images/63e52399159a69bf0ea848c6_Image_5.jpeg,did not like,5.336503566,,,,,,,,,,,,,
,,,,,,,,,,,,,,,,,,,,,,,c,0,space,0.7474,0,0,0,0,1,1.4822,,,
,,,,,,,,NAN,,NAN,,0,14,14,14,1,15,Riley,Rej,Participant_Images/63e52399159a69bf0ea848c6/63e52399159a69bf0ea848c6_Images/63e52399159a69bf0ea848c6_Image_23.jpeg,liked,2.642157193,,,,,,,,,,,,,
,,,,,,space,2.2927,NAN,,NAN,,0,15,15,15,1,16,Riley,Rej,Participant_Images/63e52399159a69bf0ea848c6/63e52399159a69bf0ea848c6_Images/63e52399159a69bf0ea848c6_Image_27.jpeg,liked,4.456234322,,,,,,,,,,,,,
,,,,,,space,0.9241,NAN,,NAN,,0,16,16,16,1,17,Riley,Rej,Participant_Images/63e52399159a69bf0ea848c6/63e52399159a69bf0ea848c6_Images/63e52399159a69bf0ea848c6_Image_18.jpeg,did not like,4.438512181,,,,,,,,,,,,,
,,,,,,space,0.6717,NAN,,NAN,,0,17,17,17,1,18,Riley,Rej,Participant_Images/63e52399159a69bf0ea848c6/63e52399159a69bf0ea848c6_Images/63e52399159a69bf0ea848c6_Image_6.jpeg,did not like,2.682944783,,,,,,,,,,,,,
,,,,,,space,0.652,NAN,,NAN,,0,18,18,18,1,19,Riley,Rej,Participant_Images/63e52399159a69bf0ea848c6/63e52399159a69bf0ea848c6_Images/63e52399159a69bf0ea848c6_Image_13.jpeg,liked,4.51984296,,,,,,,,,,,,,
,,,,,,,,,,,,,,,,,,,,,,,c,0,space,0.7706,0,0,0,0,1,0.9703,,,
,,,,,,,,NAN,,NAN,,0,19,19,19,1,20,Riley,Rej,Participant_Images/63e52399159a69bf0ea848c6/63e52399159a69bf0ea848c6_Images/63e52399159a69bf0ea848c6_Image_16.jpeg,did not like,3.195382774,,,,,,,,,,,,,
,,,,,,space,0.7206,NAN,,NAN,,0,20,20,20,1,21,Riley,Rej,Participant_Images/63e52399159a69bf0ea848c6/63e52399159a69bf0ea848c6_Images/63e52399159a69bf0ea848c6_Image_7.jpeg,liked,1.779333479,,,,,,,,,,,,,
,,,,,,space,0.7058,NAN,,NAN,,0,21,21,21,1,22,Riley,Rej,Participant_Images/63e52399159a69bf0ea848c6/63e52399159a69bf0ea848c6_Images/63e52399159a69bf0ea848c6_Image_17.jpeg,liked,4.312468682,,,,,,,,,,,,,
,,,,,,space,0.6688,NAN,,NAN,,0,22,22,22,1,23,Riley,Rej,Participant_Images/63e52399159a69bf0ea848c6/63e52399159a69bf0ea848c6_Images/63e52399159a69bf0ea848c6_Image_9.jpeg,did not like,4.940433059,,,,,,,,,,,,,
,,,,,,space,0.7362,NAN,,NAN,,0,23,23,23,1,24,Riley,Rej,Participant_Images/63e52399159a69bf0ea848c6/63e52399159a69bf0ea848c6_Images/63e52399159a69bf0ea848c6_Image_20.jpeg,did not like,2.7105123,,,,,,,,,,,,,
,,,,,,,,,,,,,,,,,,,,,,,s,1,space,0.9354,0,0,0,0,1,2.7792,,,
,,,,,,,,NAN,,NAN,,0,24,24,24,1,25,Riley,Rej,Participant_Images/63e52399159a69bf0ea848c6/63e52399159a69bf0ea848c6_Images/63e52399159a69bf0ea848c6_Image_15.jpeg,did not like,3.602308302,,,,,,,,,,,,,
,,,,,,space,1.2706,NAN,,NAN,,0,25,25,25,1,26,Riley,Rej,Participant_Images/63e52399159a69bf0ea848c6/63e52399159a69bf0ea848c6_Images/63e52399159a69bf0ea848c6_Image_10.jpeg,liked,4.106391878,,,,,,,,,,,,,
,,,,,,space,0.5885,NAN,,NAN,,0,26,26,26,1,27,Riley,Rej,Participant_Images/63e52399159a69bf0ea848c6/63e52399159a69bf0ea848c6_Images/63e52399159a69bf0ea848c6_Image_25.jpeg,did not like,3.799433026,,,,,,,,,,,,,
,,,,,,space,0.7871,NAN,,NAN,,0,27,27,27,1,28,Riley,Rej,Participant_Images/63e52399159a69bf0ea848c6/63e52399159a69bf0ea848c6_Images/63e52399159a69bf0ea848c6_Image_19.jpeg,did not like,5.246980764,,,,,,,,,,,,,
,,,,,,space,0.7389,NAN,,NAN,,0,28,28,28,1,29,Riley,Rej,Participant_Images/63e52399159a69bf0ea848c6/63e52399159a69bf0ea848c6_Images/63e52399159a69bf0ea848c6_Image_3.jpeg,liked,3.30081769,,,,,,,,,,,,,
,,,,,,,,,,,,,,,,,,,,,,,c,0,space,0.7236,0,0,0,0,1,2.201,,,
,,,,,,,,1,,6,,0,29,29,29,1,30,Riley,Rej,Participant_Images/63e52399159a69bf0ea848c6/63e52399159a69bf0ea848c6_Images/63e52399159a69bf0ea848c6_Image_12.jpeg,liked,1.661473164,,,,,,,,,,,,,
,,,,space,2.3217,space,0.8894,NAN,,NAN,,0,30,30,30,1,31,Taylor,Neutral,Participant_Images/63e52399159a69bf0ea848c6/63e52399159a69bf0ea848c6_Images/63e52399159a69bf0ea848c6_Image_18.jpeg,did not like,3.613205605,,,,,,,,,,,,,
,,,,,,space,1.1735,NAN,,NAN,,0,31,31,31,1,32,Taylor,Neutral,Participant_Images/63e52399159a69bf0ea848c6/63e52399159a69bf0ea848c6_Images/63e52399159a69bf0ea848c6_Image_13.jpeg,liked,4.988446431,,,,,,,,,,,,,
,,,,,,space,0.8372,NAN,,NAN,,0,32,32,32,1,33,Taylor,Neutral,Participant_Images/63e52399159a69bf0ea848c6/63e52399159a69bf0ea848c6_Images/63e52399159a69bf0ea848c6_Image_2.jpeg,liked,3.470791822,,,,,,,,,,,,,
,,,,,,space,0.6803,NAN,,NAN,,0,33,33,33,1,34,Taylor,Neutral,Participant_Images/63e52399159a69bf0ea848c6/63e52399159a69bf0ea848c6_Images/63e52399159a69bf0ea848c6_Image_10.jpeg,did not like,3.820572462,,,,,,,,,,,,,
,,,,,,,,,,,,,,,,,,,,,,,c,0,space,0.6394,0,0,0,0,1,1.9036,,,
,,,,,,,,NAN,,NAN,,0,34,34,34,1,35,Taylor,Neutral,Participant_Images/63e52399159a69bf0ea848c6/63e52399159a69bf0ea848c6_Images/63e52399159a69bf0ea848c6_Image_15.jpeg,liked,2.455989137,,,,,,,,,,,,,
,,,,,,space,0.6485,NAN,,NAN,,0,35,35,35,1,36,Taylor,Neutral,Participant_Images/63e52399159a69bf0ea848c6/63e52399159a69bf0ea848c6_Images/63e52399159a69bf0ea848c6_Image_20.jpeg,did not like,3.79605092,,,,,,,,,,,,,
,,,,,,space,0.7054,NAN,,NAN,,0,36,36,36,1,37,Taylor,Neutral,Participant_Images/63e52399159a69bf0ea848c6/63e52399159a69bf0ea848c6_Images/63e52399159a69bf0ea848c6_Image_11.jpeg,did not like,3.562416326,,,,,,,,,,,,,
,,,,,,space,0.8557,NAN,,NAN,,0,37,37,37,1,38,Taylor,Neutral,Participant_Images/63e52399159a69bf0ea848c6/63e52399159a69bf0ea848c6_Images/63e52399159a69bf0ea848c6_Image_26.jpeg,liked,2.843822497,,,,,,,,,,,,,
,,,,,,space,0.8397,NAN,,NAN,,0,38,38,38,1,39,Taylor,Neutral,Participant_Images/63e52399159a69bf0ea848c6/63e52399159a69bf0ea848c6_Images/63e52399159a69bf0ea848c6_Image_14.jpeg,liked,3.546495948,,,,,,,,,,,,,
,,,,,,,,,,,,,,,,,,,,,,,c,0,space,0.5812,0,0,0,0,1,1.1011,,,
,,,,,,,,NAN,,NAN,,0,39,39,39,1,40,Taylor,Neutral,Participant_Images/63e52399159a69bf0ea848c6/63e52399159a69bf0ea848c6_Images/63e52399159a69bf0ea848c6_Image_16.jpeg,did not like,1.672012706,,,,,,,,,,,,,
,,,,,,space,0.708,NAN,,NAN,,0,40,40,40,1,41,Taylor,Neutral,Participant_Images/63e52399159a69bf0ea848c6/63e52399159a69bf0ea848c6_Images/63e52399159a69bf0ea848c6_Image_12.jpeg,did not like,4.942172136,,,,,,,,,,,,,
,,,,,,space,0.7818,NAN,,NAN,,0,41,41,41,1,42,Taylor,Neutral,Participant_Images/63e52399159a69bf0ea848c6/63e52399159a69bf0ea848c6_Images/63e52399159a69bf0ea848c6_Image_21.jpeg,did not like,2.50187214,,,,,,,,,,,,,
,,,,,,space,1.0991,NAN,,NAN,,0,42,42,42,1,43,Taylor,Neutral,Participant_Images/63e52399159a69bf0ea848c6/63e52399159a69bf0ea848c6_Images/63e52399159a69bf0ea848c6_Image_22.jpeg,liked,2.071164779,,,,,,,,,,,,,
,,,,,,space,0.9534,NAN,,NAN,,0,43,43,43,1,44,Taylor,Neutral,Participant_Images/63e52399159a69bf0ea848c6/63e52399159a69bf0ea848c6_Images/63e52399159a69bf0ea848c6_Image_6.jpeg,did not like,5.336503566,,,,,,,,,,,,,
,,,,,,,,,,,,,,,,,,,,,,,c,0,space,1.1889,0,0,0,0,1,1.0012,,,
,,,,,,,,NAN,,NAN,,0,44,44,44,1,45,Taylor,Neutral,Participant_Images/63e52399159a69bf0ea848c6/63e52399159a69bf0ea848c6_Images/63e52399159a69bf0ea848c6_Image_3.jpeg,liked,2.642157193,,,,,,,,,,,,,
,,,,,,space,0.6879,NAN,,NAN,,0,45,45,45,1,46,Taylor,Neutral,Participant_Images/63e52399159a69bf0ea848c6/63e52399159a69bf0ea848c6_Images/63e52399159a69bf0ea848c6_Image_19.jpeg,did not like,4.456234322,,,,,,,,,,,,,
,,,,,,space,0.7304,NAN,,NAN,,0,46,46,46,1,47,Taylor,Neutral,Participant_Images/63e52399159a69bf0ea848c6/63e52399159a69bf0ea848c6_Images/63e52399159a69bf0ea848c6_Image_24.jpeg,liked,4.438512181,,,,,,,,,,,,,
,,,,,,space,0.7203,NAN,,NAN,,0,47,47,47,1,48,Taylor,Neutral,Participant_Images/63e52399159a69bf0ea848c6/63e52399159a69bf0ea848c6_Images/63e52399159a69bf0ea848c6_Image_1.jpeg,liked,2.682944783,,,,,,,,,,,,,
,,,,,,space,0.7558,NAN,,NAN,,0,48,48,48,1,49,Taylor,Neutral,Participant_Images/63e52399159a69bf0ea848c6/63e52399159a69bf0ea848c6_Images/63e52399159a69bf0ea848c6_Image_27.jpeg,liked,4.51984296,,,,,,,,,,,,,
,,,,,,,,,,,,,,,,,,,,,,,c,0,space,0.6554,0,0,0,0,1,1.0322,,,
,,,,,,,,NAN,,NAN,,0,49,49,49,1,50,Taylor,Neutral,Participant_Images/63e52399159a69bf0ea848c6/63e52399159a69bf0ea848c6_Images/63e52399159a69bf0ea848c6_Image_29.jpeg,did not like,3.195382774,,,,,,,,,,,,,
,,,,,,space,0.7571,NAN,,NAN,,0,50,50,50,1,51,Taylor,Neutral,Participant_Images/63e52399159a69bf0ea848c6/63e52399159a69bf0ea848c6_Images/63e52399159a69bf0ea848c6_Image_28.jpeg,did not like,1.779333479,,,,,,,,,,,,,
,,,,,,space,0.8067,NAN,,NAN,,0,51,51,51,1,52,Taylor,Neutral,Participant_Images/63e52399159a69bf0ea848c6/63e52399159a69bf0ea848c6_Images/63e52399159a69bf0ea848c6_Image_4.jpeg,liked,4.312468682,,,,,,,,,,,,,
,,,,,,space,0.6894,NAN,,NAN,,0,52,52,52,1,53,Taylor,Neutral,Participant_Images/63e52399159a69bf0ea848c6/63e52399159a69bf0ea848c6_Images/63e52399159a69bf0ea848c6_Image_25.jpeg,did not like,4.940433059,,,,,,,,,,,,,
,,,,,,space,0.7702,NAN,,NAN,,0,53,53,53,1,54,Taylor,Neutral,Participant_Images/63e52399159a69bf0ea848c6/63e52399159a69bf0ea848c6_Images/63e52399159a69bf0ea848c6_Image_17.jpeg,liked,2.7105123,,,,,,,,,,,,,
,,,,,,,,,,,,,,,,,,,,,,,c,0,space,0.9212,0,0,0,0,1,1.3772,,,
,,,,,,,,NAN,,NAN,,0,54,54,54,1,55,Taylor,Neutral,Participant_Images/63e52399159a69bf0ea848c6/63e52399159a69bf0ea848c6_Images/63e52399159a69bf0ea848c6_Image_9.jpeg,did not like,3.602308302,,,,,,,,,,,,,
,,,,,,space,0.7399,NAN,,NAN,,0,55,55,55,1,56,Taylor,Neutral,Participant_Images/63e52399159a69bf0ea848c6/63e52399159a69bf0ea848c6_Images/63e52399159a69bf0ea848c6_Image_5.jpeg,did not like,4.106391878,,,,,,,,,,,,,
,,,,,,space,0.9025,NAN,,NAN,,0,56,56,56,1,57,Taylor,Neutral,Participant_Images/63e52399159a69bf0ea848c6/63e52399159a69bf0ea848c6_Images/63e52399159a69bf0ea848c6_Image_30.jpeg,liked,3.799433026,,,,,,,,,,,,,
,,,,,,space,0.7329,NAN,,NAN,,0,57,57,57,1,58,Taylor,Neutral,Participant_Images/63e52399159a69bf0ea848c6/63e52399159a69bf0ea848c6_Images/63e52399159a69bf0ea848c6_Image_8.jpeg,liked,5.246980764,,,,,,,,,,,,,
,,,,,,space,0.8351,NAN,,NAN,,0,58,58,58,1,59,Taylor,Neutral,Participant_Images/63e52399159a69bf0ea848c6/63e52399159a69bf0ea848c6_Images/63e52399159a69bf0ea848c6_Image_23.jpeg,did not like,3.30081769,,,,,,,,,,,,,
,,,,,,,,,,,,,,,,,,,,,,,c,0,space,0.5704,0,0,0,0,1,1.2456,,,
,,,,,,,,2,,6,,0,59,59,59,1,60,Taylor,Neutral,Participant_Images/63e52399159a69bf0ea848c6/63e52399159a69bf0ea848c6_Images/63e52399159a69bf0ea848c6_Image_7.jpeg,liked,1.661473164,,,,,,,,,,,,,
,,,,space,1.6258,space,1.587,NAN,,NAN,,0,60,60,60,1,61,Alex,Acc,Participant_Images/63e52399159a69bf0ea848c6/63e52399159a69bf0ea848c6_Images/63e52399159a69bf0ea848c6_Image_13.jpeg,liked,3.613205605,,,,,,,,,,,,,
,,,,,,space,1.6832,NAN,,NAN,,0,61,61,61,1,62,Alex,Acc,Participant_Images/63e52399159a69bf0ea848c6/63e52399159a69bf0ea848c6_Images/63e52399159a69bf0ea848c6_Image_30.jpeg,did not like,4.988446431,,,,,,,,,,,,,
,,,,,,space,3.4188,NAN,,NAN,,0,62,62,62,1,63,Alex,Acc,Participant_Images/63e52399159a69bf0ea848c6/63e52399159a69bf0ea848c6_Images/63e52399159a69bf0ea848c6_Image_23.jpeg,liked,3.470791822,,,,,,,,,,,,,
,,,,,,space,1.2959,NAN,,NAN,,0,63,63,63,1,64,Alex,Acc,Participant_Images/63e52399159a69bf0ea848c6/63e52399159a69bf0ea848c6_Images/63e52399159a69bf0ea848c6_Image_5.jpeg,did not like,3.820572462,,,,,,,,,,,,,
,,,,,,,,,,,,,,,,,,,,,,,c,0,space,1.8949,0,0,0,0,1,2.2842,,,
,,,,,,,,NAN,,NAN,,0,64,64,64,1,65,Alex,Acc,Participant_Images/63e52399159a69bf0ea848c6/63e52399159a69bf0ea848c6_Images/63e52399159a69bf0ea848c6_Image_2.jpeg,did not like,2.455989137,,,,,,,,,,,,,
,,,,,,space,1.0166,NAN,,NAN,,0,65,65,65,1,66,Alex,Acc,Participant_Images/63e52399159a69bf0ea848c6/63e52399159a69bf0ea848c6_Images/63e52399159a69bf0ea848c6_Image_22.jpeg,liked,3.79605092,,,,,,,,,,,,,
,,,,,,space,0.8387,NAN,,NAN,,0,66,66,66,1,67,Alex,Acc,Participant_Images/63e52399159a69bf0ea848c6/63e52399159a69bf0ea848c6_Images/63e52399159a69bf0ea848c6_Image_6.jpeg,liked,3.562416326,,,,,,,,,,,,,
,,,,,,space,1.5517,NAN,,NAN,,0,67,67,67,1,68,Alex,Acc,Participant_Images/63e52399159a69bf0ea848c6/63e52399159a69bf0ea848c6_Images/63e52399159a69bf0ea848c6_Image_9.jpeg,did not like,2.843822497,,,,,,,,,,,,,
,,,,,,space,1.0218,NAN,,NAN,,0,68,68,68,1,69,Alex,Acc,Participant_Images/63e52399159a69bf0ea848c6/63e52399159a69bf0ea848c6_Images/63e52399159a69bf0ea848c6_Image_10.jpeg,liked,3.546495948,,,,,,,,,,,,,
,,,,,,,,,,,,,,,,,,,,,,,c,0,space,0.8683,0,0,0,0,1,1.928,,,
,,,,,,,,NAN,,NAN,,0,69,69,69,1,70,Alex,Acc,Participant_Images/63e52399159a69bf0ea848c6/63e52399159a69bf0ea848c6_Images/63e52399159a69bf0ea848c6_Image_12.jpeg,liked,1.672012706,,,,,,,,,,,,,
,,,,,,space,1.2373,NAN,,NAN,,0,70,70,70,1,71,Alex,Acc,Participant_Images/63e52399159a69bf0ea848c6/63e52399159a69bf0ea848c6_Images/63e52399159a69bf0ea848c6_Image_29.jpeg,liked,4.942172136,,,,,,,,,,,,,
,,,,,,space,1.837,NAN,,NAN,,0,71,71,71,1,72,Alex,Acc,Participant_Images/63e52399159a69bf0ea848c6/63e52399159a69bf0ea848c6_Images/63e52399159a69bf0ea848c6_Image_18.jpeg,liked,2.50187214,,,,,,,,,,,,,
,,,,,,space,0.985,NAN,,NAN,,0,72,72,72,1,73,Alex,Acc,Participant_Images/63e52399159a69bf0ea848c6/63e52399159a69bf0ea848c6_Images/63e52399159a69bf0ea848c6_Image_26.jpeg,liked,2.071164779,,,,,,,,,,,,,
,,,,,,space,0.9417,NAN,,NAN,,0,73,73,73,1,74,Alex,Acc,Participant_Images/63e52399159a69bf0ea848c6/63e52399159a69bf0ea848c6_Images/63e52399159a69bf0ea848c6_Image_19.jpeg,did not like,5.336503566,,,,,,,,,,,,,
,,,,,,,,,,,,,,,,,,,,,,,c,0,space,0.8709,0,0,0,0,1,1.8166,,,
,,,,,,,,NAN,,NAN,,0,74,74,74,1,75,Alex,Acc,Participant_Images/63e52399159a69bf0ea848c6/63e52399159a69bf0ea848c6_Images/63e52399159a69bf0ea848c6_Image_25.jpeg,did not like,2.642157193,,,,,,,,,,,,,
,,,,,,space,0.4549,NAN,,NAN,,0,75,75,75,1,76,Alex,Acc,Participant_Images/63e52399159a69bf0ea848c6/63e52399159a69bf0ea848c6_Images/63e52399159a69bf0ea848c6_Image_15.jpeg,did not like,4.456234322,,,,,,,,,,,,,
,,,,,,space,0.9412,NAN,,NAN,,0,76,76,76,1,77,Alex,Acc,Participant_Images/63e52399159a69bf0ea848c6/63e52399159a69bf0ea848c6_Images/63e52399159a69bf0ea848c6_Image_1.jpeg,liked,4.438512181,,,,,,,,,,,,,
,,,,,,space,0.8063,NAN,,NAN,,0,77,77,77,1,78,Alex,Acc,Participant_Images/63e52399159a69bf0ea848c6/63e52399159a69bf0ea848c6_Images/63e52399159a69bf0ea848c6_Image_8.jpeg,liked,2.682944783,,,,,,,,,,,,,
,,,,,,space,1.0693,NAN,,NAN,,0,78,78,78,1,79,Alex,Acc,Participant_Images/63e52399159a69bf0ea848c6/63e52399159a69bf0ea848c6_Images/63e52399159a69bf0ea848c6_Image_28.jpeg,liked,4.51984296,,,,,,,,,,,,,
,,,,,,,,,,,,,,,,,,,,,,,c,0,space,1.0057,0,0,0,0,1,1.7342,,,
,,,,,,,,NAN,,NAN,,0,79,79,79,1,80,Alex,Acc,Participant_Images/63e52399159a69bf0ea848c6/63e52399159a69bf0ea848c6_Images/63e52399159a69bf0ea848c6_Image_21.jpeg,liked,3.195382774,,,,,,,,,,,,,
,,,,,,space,0.6214,NAN,,NAN,,0,80,80,80,1,81,Alex,Acc,Participant_Images/63e52399159a69bf0ea848c6/63e52399159a69bf0ea848c6_Images/63e52399159a69bf0ea848c6_Image_16.jpeg,liked,1.779333479,,,,,,,,,,,,,
,,,,,,space,2.5044,NAN,,NAN,,0,81,81,81,1,82,Alex,Acc,Participant_Images/63e52399159a69bf0ea848c6/63e52399159a69bf0ea848c6_Images/63e52399159a69bf0ea848c6_Image_20.jpeg,liked,4.312468682,,,,,,,,,,,,,
,,,,,,space,2.9525,NAN,,NAN,,0,82,82,82,1,83,Alex,Acc,Participant_Images/63e52399159a69bf0ea848c6/63e52399159a69bf0ea848c6_Images/63e52399159a69bf0ea848c6_Image_24.jpeg,liked,4.940433059,,,,,,,,,,,,,
,,,,,,space,0.7365,NAN,,NAN,,0,83,83,83,1,84,Alex,Acc,Participant_Images/63e52399159a69bf0ea848c6/63e52399159a69bf0ea848c6_Images/63e52399159a69bf0ea848c6_Image_11.jpeg,liked,2.7105123,,,,,,,,,,,,,
,,,,,,,,,,,,,,,,,,,,,,,c,0,space,0.5404,0,0,0,0,1,1.7001,,,
,,,,,,,,NAN,,NAN,,0,84,84,84,1,85,Alex,Acc,Participant_Images/63e52399159a69bf0ea848c6/63e52399159a69bf0ea848c6_Images/63e52399159a69bf0ea848c6_Image_14.jpeg,liked,3.602308302,,,,,,,,,,,,,
,,,,,,space,0.8229,NAN,,NAN,,0,85,85,85,1,86,Alex,Acc,Participant_Images/63e52399159a69bf0ea848c6/63e52399159a69bf0ea848c6_Images/63e52399159a69bf0ea848c6_Image_4.jpeg,did not like,4.106391878,,,,,,,,,,,,,
,,,,,,space,0.8849,NAN,,NAN,,0,86,86,86,1,87,Alex,Acc,Participant_Images/63e52399159a69bf0ea848c6/63e52399159a69bf0ea848c6_Images/63e52399159a69bf0ea848c6_Image_7.jpeg,liked,3.799433026,,,,,,,,,,,,,
,,,,,,space,0.6719,NAN,,NAN,,0,87,87,87,1,88,Alex,Acc,Participant_Images/63e52399159a69bf0ea848c6/63e52399159a69bf0ea848c6_Images/63e52399159a69bf0ea848c6_Image_3.jpeg,liked,5.246980764,,,,,,,,,,,,,
,,,,,,space,0.7548,NAN,,NAN,,0,88,88,88,1,89,Alex,Acc,Participant_Images/63e52399159a69bf0ea848c6/63e52399159a69bf0ea848c6_Images/63e52399159a69bf0ea848c6_Image_27.jpeg,liked,3.30081769,,,,,,,,,,,,,
,,,,,,,,,,,,,,,,,,,,,,,c,0,space,0.6894,0,0,0,0,1,1.4526,,,
,,,,,,,,2,,6,,0,89,89,89,1,90,Alex,Acc,Participant_Images/63e52399159a69bf0ea848c6/63e52399159a69bf0ea848c6_Images/63e52399159a69bf0ea848c6_Image_17.jpeg,did not like,1.661473164,,,,,,,,,,,,,
,,,,space,1.3639,space,1.2542,NAN,,NAN,,0,90,90,90,1,91,Sam,Acc,Participant_Images/63e52399159a69bf0ea848c6/63e52399159a69bf0ea848c6_Images/63e52399159a69bf0ea848c6_Image_12.jpeg,did not like,3.613205605,,,,,,,,,,,,,
,,,,,,space,3.3682,NAN,,NAN,,0,91,91,91,1,92,Sam,Acc,Participant_Images/63e52399159a69bf0ea848c6/63e52399159a69bf0ea848c6_Images/63e52399159a69bf0ea848c6_Image_25.jpeg,liked,4.988446431,,,,,,,,,,,,,
,,,,,,space,1.2663,NAN,,NAN,,0,92,92,92,1,93,Sam,Acc,Participant_Images/63e52399159a69bf0ea848c6/63e52399159a69bf0ea848c6_Images/63e52399159a69bf0ea848c6_Image_11.jpeg,liked,3.470791822,,,,,,,,,,,,,
,,,,,,space,1.0205,NAN,,NAN,,0,93,93,93,1,94,Sam,Acc,Participant_Images/63e52399159a69bf0ea848c6/63e52399159a69bf0ea848c6_Images/63e52399159a69bf0ea848c6_Image_28.jpeg,liked,3.820572462,,,,,,,,,,,,,
,,,,,,,,,,,,,,,,,,,,,,,c,0,space,3.1369,0,0,0,0,1,1.4376,,,
,,,,,,,,NAN,,NAN,,0,94,94,94,1,95,Sam,Acc,Participant_Images/63e52399159a69bf0ea848c6/63e52399159a69bf0ea848c6_Images/63e52399159a69bf0ea848c6_Image_8.jpeg,liked,2.455989137,,,,,,,,,,,,,
,,,,,,space,1.8312,NAN,,NAN,,0,95,95,95,1,96,Sam,Acc,Participant_Images/63e52399159a69bf0ea848c6/63e52399159a69bf0ea848c6_Images/63e52399159a69bf0ea848c6_Image_26.jpeg,did not like,3.79605092,,,,,,,,,,,,,
,,,,,,space,1.2663,NAN,,NAN,,0,96,96,96,1,97,Sam,Acc,Participant_Images/63e52399159a69bf0ea848c6/63e52399159a69bf0ea848c6_Images/63e52399159a69bf0ea848c6_Image_2.jpeg,liked,3.562416326,,,,,,,,,,,,,
,,,,,,space,1.7038,NAN,,NAN,,0,97,97,97,1,98,Sam,Acc,Participant_Images/63e52399159a69bf0ea848c6/63e52399159a69bf0ea848c6_Images/63e52399159a69bf0ea848c6_Image_7.jpeg,liked,2.843822497,,,,,,,,,,,,,
,,,,,,space,1.2376,NAN,,NAN,,0,98,98,98,1,99,Sam,Acc,Participant_Images/63e52399159a69bf0ea848c6/63e52399159a69bf0ea848c6_Images/63e52399159a69bf0ea848c6_Image_30.jpeg,did not like,3.546495948,,,,,,,,,,,,,
,,,,,,,,,,,,,,,,,,,,,,,c,0,space,0.8878,0,0,0,0,1,1.454,,,
,,,,,,,,NAN,,NAN,,0,99,99,99,1,100,Sam,Acc,Participant_Images/63e52399159a69bf0ea848c6/63e52399159a69bf0ea848c6_Images/63e52399159a69bf0ea848c6_Image_3.jpeg,liked,1.672012706,,,,,,,,,,,,,
,,,,,,space,0.6385,NAN,,NAN,,0,100,100,100,1,101,Sam,Acc,Participant_Images/63e52399159a69bf0ea848c6/63e52399159a69bf0ea848c6_Images/63e52399159a69bf0ea848c6_Image_5.jpeg,liked,4.942172136,,,,,,,,,,,,,
,,,,,,space,0.6964,NAN,,NAN,,0,101,101,101,1,102,Sam,Acc,Participant_Images/63e52399159a69bf0ea848c6/63e52399159a69bf0ea848c6_Images/63e52399159a69bf0ea848c6_Image_10.jpeg,liked,2.50187214,,,,,,,,,,,,,
,,,,,,space,2.8632,NAN,,NAN,,0,102,102,102,1,103,Sam,Acc,Participant_Images/63e52399159a69bf0ea848c6/63e52399159a69bf0ea848c6_Images/63e52399159a69bf0ea848c6_Image_6.jpeg,liked,2.071164779,,,,,,,,,,,,,
,,,,,,space,1.9393,NAN,,NAN,,0,103,103,103,1,104,Sam,Acc,Participant_Images/63e52399159a69bf0ea848c6/63e52399159a69bf0ea848c6_Images/63e52399159a69bf0ea848c6_Image_27.jpeg,liked,5.336503566,,,,,,,,,,,,,
,,,,,,,,,,,,,,,,,,,,,,,c,0,space,1.404,0,0,0,0,1,1.5674,,,
,,,,,,,,NAN,,NAN,,0,104,104,104,1,105,Sam,Acc,Participant_Images/63e52399159a69bf0ea848c6/63e52399159a69bf0ea848c6_Images/63e52399159a69bf0ea848c6_Image_23.jpeg,did not like,2.642157193,,,,,,,,,,,,,
,,,,,,space,0.5249,NAN,,NAN,,0,105,105,105,1,106,Sam,Acc,Participant_Images/63e52399159a69bf0ea848c6/63e52399159a69bf0ea848c6_Images/63e52399159a69bf0ea848c6_Image_29.jpeg,liked,4.456234322,,,,,,,,,,,,,
,,,,,,space,1.2321,NAN,,NAN,,0,106,106,106,1,107,Sam,Acc,Participant_Images/63e52399159a69bf0ea848c6/63e52399159a69bf0ea848c6_Images/63e52399159a69bf0ea848c6_Image_14.jpeg,did not like,4.438512181,,,,,,,,,,,,,
,,,,,,space,2.1029,NAN,,NAN,,0,107,107,107,1,108,Sam,Acc,Participant_Images/63e52399159a69bf0ea848c6/63e52399159a69bf0ea848c6_Images/63e52399159a69bf0ea848c6_Image_18.jpeg,did not like,2.682944783,,,,,,,,,,,,,
,,,,,,space,0.8365,NAN,,NAN,,0,108,108,108,1,109,Sam,Acc,Participant_Images/63e52399159a69bf0ea848c6/63e52399159a69bf0ea848c6_Images/63e52399159a69bf0ea848c6_Image_17.jpeg,liked,4.51984296,,,,,,,,,,,,,
,,,,,,,,,,,,,,,,,,,,,,,c,0,space,0.7483,0,0,0,0,1,1.4564,,,
,,,,,,,,NAN,,NAN,,0,109,109,109,1,110,Sam,Acc,Participant_Images/63e52399159a69bf0ea848c6/63e52399159a69bf0ea848c6_Images/63e52399159a69bf0ea848c6_Image_1.jpeg,did not like,3.195382774,,,,,,,,,,,,,
,,,,,,space,2.5712,NAN,,NAN,,0,110,110,110,1,111,Sam,Acc,Participant_Images/63e52399159a69bf0ea848c6/63e52399159a69bf0ea848c6_Images/63e52399159a69bf0ea848c6_Image_9.jpeg,liked,1.779333479,,,,,,,,,,,,,
,,,,,,space,1.272,NAN,,NAN,,0,111,111,111,1,112,Sam,Acc,Participant_Images/63e52399159a69bf0ea848c6/63e52399159a69bf0ea848c6_Images/63e52399159a69bf0ea848c6_Image_21.jpeg,did not like,4.312468682,,,,,,,,,,,,,
,,,,,,space,1.0552,NAN,,NAN,,0,112,112,112,1,113,Sam,Acc,Participant_Images/63e52399159a69bf0ea848c6/63e52399159a69bf0ea848c6_Images/63e52399159a69bf0ea848c6_Image_19.jpeg,liked,4.940433059,,,,,,,,,,,,,
,,,,,,space,1.0003,NAN,,NAN,,0,113,113,113,1,114,Sam,Acc,Participant_Images/63e52399159a69bf0ea848c6/63e52399159a69bf0ea848c6_Images/63e52399159a69bf0ea848c6_Image_4.jpeg,liked,2.7105123,,,,,,,,,,,,,
,,,,,,,,,,,,,,,,,,,,,,,c,0,space,1.0871,0,0,0,0,1,1.1444,,,
,,,,,,,,NAN,,NAN,,0,114,114,114,1,115,Sam,Acc,Participant_Images/63e52399159a69bf0ea848c6/63e52399159a69bf0ea848c6_Images/63e52399159a69bf0ea848c6_Image_15.jpeg,liked,3.602308302,,,,,,,,,,,,,
,,,,,,space,0.6538,NAN,,NAN,,0,115,115,115,1,116,Sam,Acc,Participant_Images/63e52399159a69bf0ea848c6/63e52399159a69bf0ea848c6_Images/63e52399159a69bf0ea848c6_Image_20.jpeg,liked,4.106391878,,,,,,,,,,,,,
,,,,,,space,1.8678,NAN,,NAN,,0,116,116,116,1,117,Sam,Acc,Participant_Images/63e52399159a69bf0ea848c6/63e52399159a69bf0ea848c6_Images/63e52399159a69bf0ea848c6_Image_13.jpeg,liked,3.799433026,,,,,,,,,,,,,
,,,,,,space,0.9377,NAN,,NAN,,0,117,117,117,1,118,Sam,Acc,Participant_Images/63e52399159a69bf0ea848c6/63e52399159a69bf0ea848c6_Images/63e52399159a69bf0ea848c6_Image_16.jpeg,did not like,5.246980764,,,,,,,,,,,,,
,,,,,,space,1.2835,NAN,,NAN,,0,118,118,118,1,119,Sam,Acc,Participant_Images/63e52399159a69bf0ea848c6/63e52399159a69bf0ea848c6_Images/63e52399159a69bf0ea848c6_Image_22.jpeg,liked,3.30081769,,,,,,,,,,,,,
,,,,,,,,,,,,,,,,,,,,,,,c,0,space,0.5664,0,0,0,0,1,1.5521,,,
,,,,,,,,3,,7,,0,119,119,119,1,120,Sam,Acc,Participant_Images/63e52399159a69bf0ea848c6/63e52399159a69bf0ea848c6_Images/63e52399159a69bf0ea848c6_Image_24.jpeg,liked,1.661473164,,,,,,,,,,,,,
,,,,space,1.9122,space,1.1856,NAN,,NAN,,0,120,120,120,1,121,Charlie,Rej,Participant_Images/63e52399159a69bf0ea848c6/63e52399159a69bf0ea848c6_Images/63e52399159a69bf0ea848c6_Image_25.jpeg,did not like,3.613205605,,,,,,,,,,,,,
,,,,,,space,0.6379,NAN,,NAN,,0,121,121,121,1,122,Charlie,Rej,Participant_Images/63e52399159a69bf0ea848c6/63e52399159a69bf0ea848c6_Images/63e52399159a69bf0ea848c6_Image_1.jpeg,liked,4.988446431,,,,,,,,,,,,,
,,,,,,space,1.1705,NAN,,NAN,,0,122,122,122,1,123,Charlie,Rej,Participant_Images/63e52399159a69bf0ea848c6/63e52399159a69bf0ea848c6_Images/63e52399159a69bf0ea848c6_Image_8.jpeg,did not like,3.470791822,,,,,,,,,,,,,
,,,,,,space,0.6721,NAN,,NAN,,0,123,123,123,1,124,Charlie,Rej,Participant_Images/63e52399159a69bf0ea848c6/63e52399159a69bf0ea848c6_Images/63e52399159a69bf0ea848c6_Image_11.jpeg,did not like,3.820572462,,,,,,,,,,,,,
,,,,,,,,,,,,,,,,,,,,,,,c,0,space,0.8215,0,0,0,0,1,1.6851,,,
,,,,,,,,NAN,,NAN,,0,124,124,124,1,125,Charlie,Rej,Participant_Images/63e52399159a69bf0ea848c6/63e52399159a69bf0ea848c6_Images/63e52399159a69bf0ea848c6_Image_26.jpeg,liked,2.455989137,,,,,,,,,,,,,
,,,,,,space,1.0284,NAN,,NAN,,0,125,125,125,1,126,Charlie,Rej,Participant_Images/63e52399159a69bf0ea848c6/63e52399159a69bf0ea848c6_Images/63e52399159a69bf0ea848c6_Image_2.jpeg,did not like,3.79605092,,,,,,,,,,,,,
,,,,,,space,0.7225,NAN,,NAN,,0,126,126,126,1,127,Charlie,Rej,Participant_Images/63e52399159a69bf0ea848c6/63e52399159a69bf0ea848c6_Images/63e52399159a69bf0ea848c6_Image_14.jpeg,liked,3.562416326,,,,,,,,,,,,,
,,,,,,space,0.5746,NAN,,NAN,,0,127,127,127,1,128,Charlie,Rej,Participant_Images/63e52399159a69bf0ea848c6/63e52399159a69bf0ea848c6_Images/63e52399159a69bf0ea848c6_Image_16.jpeg,did not like,2.843822497,,,,,,,,,,,,,
,,,,,,space,0.9904,NAN,,NAN,,0,128,128,128,1,129,Charlie,Rej,Participant_Images/63e52399159a69bf0ea848c6/63e52399159a69bf0ea848c6_Images/63e52399159a69bf0ea848c6_Image_20.jpeg,did not like,3.546495948,,,,,,,,,,,,,
,,,,,,,,,,,,,,,,,,,,,,,c,0,space,1.1216,0,0,0,0,1,1.544,,,
,,,,,,,,NAN,,NAN,,0,129,129,129,1,130,Charlie,Rej,Participant_Images/63e52399159a69bf0ea848c6/63e52399159a69bf0ea848c6_Images/63e52399159a69bf0ea848c6_Image_30.jpeg,did not like,1.672012706,,,,,,,,,,,,,
,,,,,,space,1.3191,NAN,,NAN,,0,130,130,130,1,131,Charlie,Rej,Participant_Images/63e52399159a69bf0ea848c6/63e52399159a69bf0ea848c6_Images/63e52399159a69bf0ea848c6_Image_12.jpeg,liked,4.942172136,,,,,,,,,,,,,
,,,,,,space,2.4854,NAN,,NAN,,0,131,131,131,1,132,Charlie,Rej,Participant_Images/63e52399159a69bf0ea848c6/63e52399159a69bf0ea848c6_Images/63e52399159a69bf0ea848c6_Image_7.jpeg,did not like,2.50187214,,,,,,,,,,,,,
,,,,,,space,1.0484,NAN,,NAN,,0,132,132,132,1,133,Charlie,Rej,Participant_Images/63e52399159a69bf0ea848c6/63e52399159a69bf0ea848c6_Images/63e52399159a69bf0ea848c6_Image_9.jpeg,did not like,2.071164779,,,,,,,,,,,,,
,,,,,,space,1.1865,NAN,,NAN,,0,133,133,133,1,134,Charlie,Rej,Participant_Images/63e52399159a69bf0ea848c6/63e52399159a69bf0ea848c6_Images/63e52399159a69bf0ea848c6_Image_6.jpeg,liked,5.336503566,,,,,,,,,,,,,
,,,,,,,,,,,,,,,,,,,,,,,c,0,space,1.0041,0,0,0,0,1,1.7518,,,
,,,,,,,,NAN,,NAN,,0,134,134,134,1,135,Charlie,Rej,Participant_Images/63e52399159a69bf0ea848c6/63e52399159a69bf0ea848c6_Images/63e52399159a69bf0ea848c6_Image_23.jpeg,did not like,2.642157193,,,,,,,,,,,,,
,,,,,,space,1.069,NAN,,NAN,,0,135,135,135,1,136,Charlie,Rej,Participant_Images/63e52399159a69bf0ea848c6/63e52399159a69bf0ea848c6_Images/63e52399159a69bf0ea848c6_Image_21.jpeg,did not like,4.456234322,,,,,,,,,,,,,
,,,,,,space,1.6451,NAN,,NAN,,0,136,136,136,1,137,Charlie,Rej,Participant_Images/63e52399159a69bf0ea848c6/63e52399159a69bf0ea848c6_Images/63e52399159a69bf0ea848c6_Image_10.jpeg,liked,4.438512181,,,,,,,,,,,,,
,,,,,,space,0.9689,NAN,,NAN,,0,137,137,137,1,138,Charlie,Rej,Participant_Images/63e52399159a69bf0ea848c6/63e52399159a69bf0ea848c6_Images/63e52399159a69bf0ea848c6_Image_19.jpeg,liked,2.682944783,,,,,,,,,,,,,
,,,,,,space,0.7547,NAN,,NAN,,0,138,138,138,1,139,Charlie,Rej,Participant_Images/63e52399159a69bf0ea848c6/63e52399159a69bf0ea848c6_Images/63e52399159a69bf0ea848c6_Image_29.jpeg,liked,4.51984296,,,,,,,,,,,,,
,,,,,,,,,,,,,,,,,,,,,,,c,0,space,0.8497,0,0,0,0,1,1.431,,,
,,,,,,,,NAN,,NAN,,0,139,139,139,1,140,Charlie,Rej,Participant_Images/63e52399159a69bf0ea848c6/63e52399159a69bf0ea848c6_Images/63e52399159a69bf0ea848c6_Image_24.jpeg,did not like,3.195382774,,,,,,,,,,,,,
,,,,,,space,0.8037,NAN,,NAN,,0,140,140,140,1,141,Charlie,Rej,Participant_Images/63e52399159a69bf0ea848c6/63e52399159a69bf0ea848c6_Images/63e52399159a69bf0ea848c6_Image_28.jpeg,did not like,1.779333479,,,,,,,,,,,,,
,,,,,,space,0.8387,NAN,,NAN,,0,141,141,141,1,142,Charlie,Rej,Participant_Images/63e52399159a69bf0ea848c6/63e52399159a69bf0ea848c6_Images/63e52399159a69bf0ea848c6_Image_5.jpeg,did not like,4.312468682,,,,,,,,,,,,,
,,,,,,space,0.8907,NAN,,NAN,,0,142,142,142,1,143,Charlie,Rej,Participant_Images/63e52399159a69bf0ea848c6/63e52399159a69bf0ea848c6_Images/63e52399159a69bf0ea848c6_Image_4.jpeg,did not like,4.940433059,,,,,,,,,,,,,
,,,,,,space,0.6526,NAN,,NAN,,0,143,143,143,1,144,Charlie,Rej,Participant_Images/63e52399159a69bf0ea848c6/63e52399159a69bf0ea848c6_Images/63e52399159a69bf0ea848c6_Image_27.jpeg,did not like,2.7105123,,,,,,,,,,,,,
,,,,,,,,,,,,,,,,,,,,,,,c,0,space,0.8914,0,0,0,0,1,1.6519,,,
,,,,,,,,NAN,,NAN,,0,144,144,144,1,145,Charlie,Rej,Participant_Images/63e52399159a69bf0ea848c6/63e52399159a69bf0ea848c6_Images/63e52399159a69bf0ea848c6_Image_13.jpeg,did not like,3.602308302,,,,,,,,,,,,,
,,,,,,space,0.7221,NAN,,NAN,,0,145,145,145,1,146,Charlie,Rej,Participant_Images/63e52399159a69bf0ea848c6/63e52399159a69bf0ea848c6_Images/63e52399159a69bf0ea848c6_Image_15.jpeg,did not like,4.106391878,,,,,,,,,,,,,
,,,,,,space,0.9534,NAN,,NAN,,0,146,146,146,1,147,Charlie,Rej,Participant_Images/63e52399159a69bf0ea848c6/63e52399159a69bf0ea848c6_Images/63e52399159a69bf0ea848c6_Image_17.jpeg,did not like,3.799433026,,,,,,,,,,,,,
,,,,,,space,0.9673,NAN,,NAN,,0,147,147,147,1,148,Charlie,Rej,Participant_Images/63e52399159a69bf0ea848c6/63e52399159a69bf0ea848c6_Images/63e52399159a69bf0ea848c6_Image_18.jpeg,liked,5.246980764,,,,,,,,,,,,,
,,,,,,space,1.5906,NAN,,NAN,,0,148,148,148,1,149,Charlie,Rej,Participant_Images/63e52399159a69bf0ea848c6/63e52399159a69bf0ea848c6_Images/63e52399159a69bf0ea848c6_Image_22.jpeg,did not like,3.30081769,,,,,,,,,,,,,
,,,,,,,,,,,,,,,,,,,,,,,c,0,space,0.5297,0,0,0,0,1,1.573,,,
,,,,,,,,1,,7,,0,149,149,149,1,150,Charlie,Rej,Participant_Images/63e52399159a69bf0ea848c6/63e52399159a69bf0ea848c6_Images/63e52399159a69bf0ea848c6_Image_3.jpeg,did not like,1.661473164,,,,,,,,,,,,,
,,,,,,,,,,,,,,,,,,,,,,,,,,,,,,,,,,space,2.165
