PROLIFIC_ID,endwelcomescreen_keys.keys,endwelcomescreen_keys.rt,endinstructionscreen_keys.keys,endinstructionscreen_keys.rt,endpartnermatch_keys.keys,endpartnermatch_keys.rt,sharenextphoto_key.keys,sharenextphoto_key.rt,salience_rating,key_resp.keys,stress_level,stresslevel_keypress.keys,entiretaskloop.thisRepN,entiretaskloop.thisTrialN,entiretaskloop.thisN,entiretaskloop.thisIndex,entiretaskloop.ran,TrialNumber,Partner,Condition,Photos,Feedback,FeedbackWait,choice_keys.keys,playlottery,choice_keys.rt,resumeafterlottery_keys.keys,resumeafterlottery_keys.rt,lotteryloop.thisRepN,lotteryloop.thisTrialN,lotteryloop.thisN,lotteryloop.thisIndex,lotteryloop.ran,lotteryguess_keys.keys,lotteryguess_keys.rt,end_screen_keys.keys,end_screen_keys.rt
6400d8ca785ee04d9b02ae9c,space,10.5372,,,,,,,,,,,,,,,,,,,,,,,,,,,,,,,,,,,
,,,,,,,,,,,,,,,,,,,,,,,,,,,,,,,,,,,,,
,,,space,6.5974,,,,,,,,,,,,,,,,,,,,,,,,,,,,,,,,,
,,,,,space,1.2521,space,1.7445,NAN,,NAN,,0,0,0,0,1,1,Riley,Acc,Participant_Images/6400d8ca785ee04d9b02ae9c/6400d8ca785ee04d9b02ae9c_Images/6400d8ca785ee04d9b02ae9c_Image_28.jpeg,liked,3.613205605,,,,,,,,,,,,,,
,,,,,,,space,0.367,NAN,,NAN,,0,1,1,1,1,2,Riley,Acc,Participant_Images/6400d8ca785ee04d9b02ae9c/6400d8ca785ee04d9b02ae9c_Images/6400d8ca785ee04d9b02ae9c_Image_11.jpeg,liked,4.988446431,,,,,,,,,,,,,,
,,,,,,,space,0.4661,NAN,,NAN,,0,2,2,2,1,3,Riley,Acc,Participant_Images/6400d8ca785ee04d9b02ae9c/6400d8ca785ee04d9b02ae9c_Images/6400d8ca785ee04d9b02ae9c_Image_3.jpeg,liked,3.470791822,,,,,,,,,,,,,,
,,,,,,,space,0.4278,NAN,,NAN,,0,3,3,3,1,4,Riley,Acc,Participant_Images/6400d8ca785ee04d9b02ae9c/6400d8ca785ee04d9b02ae9c_Images/6400d8ca785ee04d9b02ae9c_Image_15.jpeg,liked,3.820572462,,,,,,,,,,,,,,
,,,,,,,,,,,,,,,,,,,,,,,,c,0,3.7174,space,0.4912,0,0,0,0,1,,,,
,,,,,,,,,NAN,,NAN,,0,4,4,4,1,5,Riley,Acc,Participant_Images/6400d8ca785ee04d9b02ae9c/6400d8ca785ee04d9b02ae9c_Images/6400d8ca785ee04d9b02ae9c_Image_16.jpeg,did not like,2.455989137,,,,,,,,,,,,,,
,,,,,,,space,1.1816,NAN,,NAN,,0,5,5,5,1,6,Riley,Acc,Participant_Images/6400d8ca785ee04d9b02ae9c/6400d8ca785ee04d9b02ae9c_Images/6400d8ca785ee04d9b02ae9c_Image_13.jpeg,did not like,3.79605092,,,,,,,,,,,,,,
,,,,,,,space,0.4662,NAN,,NAN,,0,6,6,6,1,7,Riley,Acc,Participant_Images/6400d8ca785ee04d9b02ae9c/6400d8ca785ee04d9b02ae9c_Images/6400d8ca785ee04d9b02ae9c_Image_19.jpeg,liked,3.562416326,,,,,,,,,,,,,,
,,,,,,,space,0.3709,NAN,,NAN,,0,7,7,7,1,8,Riley,Acc,Participant_Images/6400d8ca785ee04d9b02ae9c/6400d8ca785ee04d9b02ae9c_Images/6400d8ca785ee04d9b02ae9c_Image_10.jpeg,liked,2.843822497,,,,,,,,,,,,,,
,,,,,,,space,0.4659,NAN,,NAN,,0,8,8,8,1,9,Riley,Acc,Participant_Images/6400d8ca785ee04d9b02ae9c/6400d8ca785ee04d9b02ae9c_Images/6400d8ca785ee04d9b02ae9c_Image_24.jpeg,did not like,3.546495948,,,,,,,,,,,,,,
,,,,,,,,,,,,,,,,,,,,,,,,s,1,2.4237,space,0.6169,0,0,0,0,1,h,1.8127,,
,,,,,,,,,NAN,,NAN,,0,9,9,9,1,10,Riley,Acc,Participant_Images/6400d8ca785ee04d9b02ae9c/6400d8ca785ee04d9b02ae9c_Images/6400d8ca785ee04d9b02ae9c_Image_30.jpeg,did not like,1.672012706,,,,,,,,,,,,,,
,,,,,,,space,0.4412,NAN,,NAN,,0,10,10,10,1,11,Riley,Acc,Participant_Images/6400d8ca785ee04d9b02ae9c/6400d8ca785ee04d9b02ae9c_Images/6400d8ca785ee04d9b02ae9c_Image_12.jpeg,did not like,4.942172136,,,,,,,,,,,,,,
,,,,,,,space,0.5279,NAN,,NAN,,0,11,11,11,1,12,Riley,Acc,Participant_Images/6400d8ca785ee04d9b02ae9c/6400d8ca785ee04d9b02ae9c_Images/6400d8ca785ee04d9b02ae9c_Image_1.jpeg,liked,2.50187214,,,,,,,,,,,,,,
,,,,,,,space,0.4731,NAN,,NAN,,0,12,12,12,1,13,Riley,Acc,Participant_Images/6400d8ca785ee04d9b02ae9c/6400d8ca785ee04d9b02ae9c_Images/6400d8ca785ee04d9b02ae9c_Image_20.jpeg,did not like,2.071164779,,,,,,,,,,,,,,
,,,,,,,space,0.5331,NAN,,NAN,,0,13,13,13,1,14,Riley,Acc,Participant_Images/6400d8ca785ee04d9b02ae9c/6400d8ca785ee04d9b02ae9c_Images/6400d8ca785ee04d9b02ae9c_Image_4.jpeg,did not like,5.336503566,,,,,,,,,,,,,,
,,,,,,,,,,,,,,,,,,,,,,,,c,0,1.5835,space,0.6335,0,0,0,0,1,,,,
,,,,,,,,,NAN,,NAN,,0,14,14,14,1,15,Riley,Acc,Participant_Images/6400d8ca785ee04d9b02ae9c/6400d8ca785ee04d9b02ae9c_Images/6400d8ca785ee04d9b02ae9c_Image_8.jpeg,liked,2.642157193,,,,,,,,,,,,,,
,,,,,,,space,0.6144,NAN,,NAN,,0,15,15,15,1,16,Riley,Acc,Participant_Images/6400d8ca785ee04d9b02ae9c/6400d8ca785ee04d9b02ae9c_Images/6400d8ca785ee04d9b02ae9c_Image_18.jpeg,liked,4.456234322,,,,,,,,,,,,,,
,,,,,,,space,0.5293,NAN,,NAN,,0,16,16,16,1,17,Riley,Acc,Participant_Images/6400d8ca785ee04d9b02ae9c/6400d8ca785ee04d9b02ae9c_Images/6400d8ca785ee04d9b02ae9c_Image_27.jpeg,liked,4.438512181,,,,,,,,,,,,,,
,,,,,,,space,0.5368,NAN,,NAN,,0,17,17,17,1,18,Riley,Acc,Participant_Images/6400d8ca785ee04d9b02ae9c/6400d8ca785ee04d9b02ae9c_Images/6400d8ca785ee04d9b02ae9c_Image_2.jpeg,liked,2.682944783,,,,,,,,,,,,,,
,,,,,,,space,0.2342,NAN,,NAN,,0,18,18,18,1,19,Riley,Acc,Participant_Images/6400d8ca785ee04d9b02ae9c/6400d8ca785ee04d9b02ae9c_Images/6400d8ca785ee04d9b02ae9c_Image_25.jpeg,liked,4.51984296,,,,,,,,,,,,,,
,,,,,,,,,,,,,,,,,,,,,,,,s,1,1.6914,space,0.6519,0,0,0,0,1,h,1.3803,,
,,,,,,,,,NAN,,NAN,,0,19,19,19,1,20,Riley,Acc,Participant_Images/6400d8ca785ee04d9b02ae9c/6400d8ca785ee04d9b02ae9c_Images/6400d8ca785ee04d9b02ae9c_Image_5.jpeg,liked,3.195382774,,,,,,,,,,,,,,
,,,,,,,space,0.253,NAN,,NAN,,0,20,20,20,1,21,Riley,Acc,Participant_Images/6400d8ca785ee04d9b02ae9c/6400d8ca785ee04d9b02ae9c_Images/6400d8ca785ee04d9b02ae9c_Image_29.jpeg,liked,1.779333479,,,,,,,,,,,,,,
,,,,,,,space,0.2764,NAN,,NAN,,0,21,21,21,1,22,Riley,Acc,Participant_Images/6400d8ca785ee04d9b02ae9c/6400d8ca785ee04d9b02ae9c_Images/6400d8ca785ee04d9b02ae9c_Image_23.jpeg,liked,4.312468682,,,,,,,,,,,,,,
,,,,,,,space,0.3924,NAN,,NAN,,0,22,22,22,1,23,Riley,Acc,Participant_Images/6400d8ca785ee04d9b02ae9c/6400d8ca785ee04d9b02ae9c_Images/6400d8ca785ee04d9b02ae9c_Image_7.jpeg,liked,4.940433059,,,,,,,,,,,,,,
,,,,,,,space,0.5314,NAN,,NAN,,0,23,23,23,1,24,Riley,Acc,Participant_Images/6400d8ca785ee04d9b02ae9c/6400d8ca785ee04d9b02ae9c_Images/6400d8ca785ee04d9b02ae9c_Image_17.jpeg,liked,2.7105123,,,,,,,,,,,,,,
,,,,,,,,,,,,,,,,,,,,,,,,c,0,1.4275,space,0.435,0,0,0,0,1,,,,
,,,,,,,,,NAN,,NAN,,0,24,24,24,1,25,Riley,Acc,Participant_Images/6400d8ca785ee04d9b02ae9c/6400d8ca785ee04d9b02ae9c_Images/6400d8ca785ee04d9b02ae9c_Image_14.jpeg,did not like,3.602308302,,,,,,,,,,,,,,
,,,,,,,space,0.4049,NAN,,NAN,,0,25,25,25,1,26,Riley,Acc,Participant_Images/6400d8ca785ee04d9b02ae9c/6400d8ca785ee04d9b02ae9c_Images/6400d8ca785ee04d9b02ae9c_Image_6.jpeg,liked,4.106391878,,,,,,,,,,,,,,
,,,,,,,space,0.4609,NAN,,NAN,,0,26,26,26,1,27,Riley,Acc,Participant_Images/6400d8ca785ee04d9b02ae9c/6400d8ca785ee04d9b02ae9c_Images/6400d8ca785ee04d9b02ae9c_Image_21.jpeg,did not like,3.799433026,,,,,,,,,,,,,,
,,,,,,,space,0.3173,NAN,,NAN,,0,27,27,27,1,28,Riley,Acc,Participant_Images/6400d8ca785ee04d9b02ae9c/6400d8ca785ee04d9b02ae9c_Images/6400d8ca785ee04d9b02ae9c_Image_22.jpeg,liked,5.246980764,,,,,,,,,,,,,,
,,,,,,,space,0.5013,NAN,,NAN,,0,28,28,28,1,29,Riley,Acc,Participant_Images/6400d8ca785ee04d9b02ae9c/6400d8ca785ee04d9b02ae9c_Images/6400d8ca785ee04d9b02ae9c_Image_9.jpeg,liked,3.30081769,,,,,,,,,,,,,,
,,,,,,,,,,,,,,,,,,,,,,,,c,0,1.3835,space,0.9116,0,0,0,0,1,,,,
,,,,,,,,,3,,4,,0,29,29,29,1,30,Riley,Acc,Participant_Images/6400d8ca785ee04d9b02ae9c/6400d8ca785ee04d9b02ae9c_Images/6400d8ca785ee04d9b02ae9c_Image_26.jpeg,liked,1.661473164,,,,,,,,,,,,,,
,,,,,space,1.2422,space,0.4027,NAN,,NAN,,0,30,30,30,1,31,Taylor,Rej,Participant_Images/6400d8ca785ee04d9b02ae9c/6400d8ca785ee04d9b02ae9c_Images/6400d8ca785ee04d9b02ae9c_Image_5.jpeg,liked,3.613205605,,,,,,,,,,,,,,
,,,,,,,space,0.6512,NAN,,NAN,,0,31,31,31,1,32,Taylor,Rej,Participant_Images/6400d8ca785ee04d9b02ae9c/6400d8ca785ee04d9b02ae9c_Images/6400d8ca785ee04d9b02ae9c_Image_13.jpeg,did not like,4.988446431,,,,,,,,,,,,,,
,,,,,,,space,0.3552,NAN,,NAN,,0,32,32,32,1,33,Taylor,Rej,Participant_Images/6400d8ca785ee04d9b02ae9c/6400d8ca785ee04d9b02ae9c_Images/6400d8ca785ee04d9b02ae9c_Image_9.jpeg,liked,3.470791822,,,,,,,,,,,,,,
,,,,,,,space,0.4948,NAN,,NAN,,0,33,33,33,1,34,Taylor,Rej,Participant_Images/6400d8ca785ee04d9b02ae9c/6400d8ca785ee04d9b02ae9c_Images/6400d8ca785ee04d9b02ae9c_Image_28.jpeg,liked,3.820572462,,,,,,,,,,,,,,
,,,,,,,,,,,,,,,,,,,,,,,,s,1,1.6291,space,1.9444,0,0,0,0,1,h,1.3631,,
,,,,,,,,,NAN,,NAN,,0,34,34,34,1,35,Taylor,Rej,Participant_Images/6400d8ca785ee04d9b02ae9c/6400d8ca785ee04d9b02ae9c_Images/6400d8ca785ee04d9b02ae9c_Image_16.jpeg,did not like,2.455989137,,,,,,,,,,,,,,
,,,,,,,space,0.5816,NAN,,NAN,,0,35,35,35,1,36,Taylor,Rej,Participant_Images/6400d8ca785ee04d9b02ae9c/6400d8ca785ee04d9b02ae9c_Images/6400d8ca785ee04d9b02ae9c_Image_17.jpeg,did not like,3.79605092,,,,,,,,,,,,,,
,,,,,,,space,0.5251,NAN,,NAN,,0,36,36,36,1,37,Taylor,Rej,Participant_Images/6400d8ca785ee04d9b02ae9c/6400d8ca785ee04d9b02ae9c_Images/6400d8ca785ee04d9b02ae9c_Image_2.jpeg,did not like,3.562416326,,,,,,,,,,,,,,
,,,,,,,space,0.3359,NAN,,NAN,,0,37,37,37,1,38,Taylor,Rej,Participant_Images/6400d8ca785ee04d9b02ae9c/6400d8ca785ee04d9b02ae9c_Images/6400d8ca785ee04d9b02ae9c_Image_4.jpeg,did not like,2.843822497,,,,,,,,,,,,,,
,,,,,,,space,0.3985,NAN,,NAN,,0,38,38,38,1,39,Taylor,Rej,Participant_Images/6400d8ca785ee04d9b02ae9c/6400d8ca785ee04d9b02ae9c_Images/6400d8ca785ee04d9b02ae9c_Image_11.jpeg,did not like,3.546495948,,,,,,,,,,,,,,
,,,,,,,,,,,,,,,,,,,,,,,,c,0,1.1031,space,0.7075,0,0,0,0,1,,,,
,,,,,,,,,NAN,,NAN,,0,39,39,39,1,40,Taylor,Rej,Participant_Images/6400d8ca785ee04d9b02ae9c/6400d8ca785ee04d9b02ae9c_Images/6400d8ca785ee04d9b02ae9c_Image_29.jpeg,did not like,1.672012706,,,,,,,,,,,,,,
,,,,,,,space,0.5274,NAN,,NAN,,0,40,40,40,1,41,Taylor,Rej,Participant_Images/6400d8ca785ee04d9b02ae9c/6400d8ca785ee04d9b02ae9c_Images/6400d8ca785ee04d9b02ae9c_Image_23.jpeg,did not like,4.942172136,,,,,,,,,,,,,,
,,,,,,,space,0.3159,NAN,,NAN,,0,41,41,41,1,42,Taylor,Rej,Participant_Images/6400d8ca785ee04d9b02ae9c/6400d8ca785ee04d9b02ae9c_Images/6400d8ca785ee04d9b02ae9c_Image_10.jpeg,did not like,2.50187214,,,,,,,,,,,,,,
,,,,,,,space,2.6177,NAN,,NAN,,0,42,42,42,1,43,Taylor,Rej,Participant_Images/6400d8ca785ee04d9b02ae9c/6400d8ca785ee04d9b02ae9c_Images/6400d8ca785ee04d9b02ae9c_Image_1.jpeg,liked,2.071164779,,,,,,,,,,,,,,
,,,,,,,space,0.5293,NAN,,NAN,,0,43,43,43,1,44,Taylor,Rej,Participant_Images/6400d8ca785ee04d9b02ae9c/6400d8ca785ee04d9b02ae9c_Images/6400d8ca785ee04d9b02ae9c_Image_7.jpeg,liked,5.336503566,,,,,,,,,,,,,,
,,,,,,,,,,,,,,,,,,,,,,,,c,0,1.0564,space,0.4489,0,0,0,0,1,,,,
,,,,,,,,,NAN,,NAN,,0,44,44,44,1,45,Taylor,Rej,Participant_Images/6400d8ca785ee04d9b02ae9c/6400d8ca785ee04d9b02ae9c_Images/6400d8ca785ee04d9b02ae9c_Image_30.jpeg,did not like,2.642157193,,,,,,,,,,,,,,
,,,,,,,space,0.5861,NAN,,NAN,,0,45,45,45,1,46,Taylor,Rej,Participant_Images/6400d8ca785ee04d9b02ae9c/6400d8ca785ee04d9b02ae9c_Images/6400d8ca785ee04d9b02ae9c_Image_6.jpeg,liked,4.456234322,,,,,,,,,,,,,,
,,,,,,,space,0.4646,NAN,,NAN,,0,46,46,46,1,47,Taylor,Rej,Participant_Images/6400d8ca785ee04d9b02ae9c/6400d8ca785ee04d9b02ae9c_Images/6400d8ca785ee04d9b02ae9c_Image_19.jpeg,did not like,4.438512181,,,,,,,,,,,,,,
,,,,,,,space,0.2697,NAN,,NAN,,0,47,47,47,1,48,Taylor,Rej,Participant_Images/6400d8ca785ee04d9b02ae9c/6400d8ca785ee04d9b02ae9c_Images/6400d8ca785ee04d9b02ae9c_Image_25.jpeg,did not like,2.682944783,,,,,,,,,,,,,,
,,,,,,,space,0.361,NAN,,NAN,,0,48,48,48,1,49,Taylor,Rej,Participant_Images/6400d8ca785ee04d9b02ae9c/6400d8ca785ee04d9b02ae9c_Images/6400d8ca785ee04d9b02ae9c_Image_14.jpeg,did not like,4.51984296,,,,,,,,,,,,,,
,,,,,,,,,,,,,,,,,,,,,,,,s,1,1.39,space,0.399,0,0,0,0,1,h,0.3159,,
,,,,,,,,,NAN,,NAN,,0,49,49,49,1,50,Taylor,Rej,Participant_Images/6400d8ca785ee04d9b02ae9c/6400d8ca785ee04d9b02ae9c_Images/6400d8ca785ee04d9b02ae9c_Image_27.jpeg,liked,3.195382774,,,,,,,,,,,,,,
,,,,,,,space,0.3886,NAN,,NAN,,0,50,50,50,1,51,Taylor,Rej,Participant_Images/6400d8ca785ee04d9b02ae9c/6400d8ca785ee04d9b02ae9c_Images/6400d8ca785ee04d9b02ae9c_Image_3.jpeg,did not like,1.779333479,,,,,,,,,,,,,,
,,,,,,,space,0.4691,NAN,,NAN,,0,51,51,51,1,52,Taylor,Rej,Participant_Images/6400d8ca785ee04d9b02ae9c/6400d8ca785ee04d9b02ae9c_Images/6400d8ca785ee04d9b02ae9c_Image_21.jpeg,did not like,4.312468682,,,,,,,,,,,,,,
,,,,,,,space,0.521,NAN,,NAN,,0,52,52,52,1,53,Taylor,Rej,Participant_Images/6400d8ca785ee04d9b02ae9c/6400d8ca785ee04d9b02ae9c_Images/6400d8ca785ee04d9b02ae9c_Image_12.jpeg,liked,4.940433059,,,,,,,,,,,,,,
,,,,,,,space,0.6196,NAN,,NAN,,0,53,53,53,1,54,Taylor,Rej,Participant_Images/6400d8ca785ee04d9b02ae9c/6400d8ca785ee04d9b02ae9c_Images/6400d8ca785ee04d9b02ae9c_Image_20.jpeg,did not like,2.7105123,,,,,,,,,,,,,,
,,,,,,,,,,,,,,,,,,,,,,,,c,0,1.2603,space,0.9643,0,0,0,0,1,,,,
,,,,,,,,,NAN,,NAN,,0,54,54,54,1,55,Taylor,Rej,Participant_Images/6400d8ca785ee04d9b02ae9c/6400d8ca785ee04d9b02ae9c_Images/6400d8ca785ee04d9b02ae9c_Image_15.jpeg,did not like,3.602308302,,,,,,,,,,,,,,
,,,,,,,space,0.4489,NAN,,NAN,,0,55,55,55,1,56,Taylor,Rej,Participant_Images/6400d8ca785ee04d9b02ae9c/6400d8ca785ee04d9b02ae9c_Images/6400d8ca785ee04d9b02ae9c_Image_22.jpeg,liked,4.106391878,,,,,,,,,,,,,,
,,,,,,,space,0.3994,NAN,,NAN,,0,56,56,56,1,57,Taylor,Rej,Participant_Images/6400d8ca785ee04d9b02ae9c/6400d8ca785ee04d9b02ae9c_Images/6400d8ca785ee04d9b02ae9c_Image_24.jpeg,did not like,3.799433026,,,,,,,,,,,,,,
,,,,,,,space,0.4208,NAN,,NAN,,0,57,57,57,1,58,Taylor,Rej,Participant_Images/6400d8ca785ee04d9b02ae9c/6400d8ca785ee04d9b02ae9c_Images/6400d8ca785ee04d9b02ae9c_Image_8.jpeg,did not like,5.246980764,,,,,,,,,,,,,,
,,,,,,,space,0.4495,NAN,,NAN,,0,58,58,58,1,59,Taylor,Rej,Participant_Images/6400d8ca785ee04d9b02ae9c/6400d8ca785ee04d9b02ae9c_Images/6400d8ca785ee04d9b02ae9c_Image_26.jpeg,did not like,3.30081769,,,,,,,,,,,,,,
,,,,,,,,,,,,,,,,,,,,,,,,s,1,2.9436,space,0.9818,0,0,0,0,1,h,1.3446,,
,,,,,,,,,1,,3,,0,59,59,59,1,60,Taylor,Rej,Participant_Images/6400d8ca785ee04d9b02ae9c/6400d8ca785ee04d9b02ae9c_Images/6400d8ca785ee04d9b02ae9c_Image_18.jpeg,did not like,1.661473164,,,,,,,,,,,,,,
,,,,,space,1.0639,space,1.0616,NAN,,NAN,,0,60,60,60,1,61,Alex,Rej,Participant_Images/6400d8ca785ee04d9b02ae9c/6400d8ca785ee04d9b02ae9c_Images/6400d8ca785ee04d9b02ae9c_Image_15.jpeg,liked,3.613205605,,,,,,,,,,,,,,
,,,,,,,space,1.4175,NAN,,NAN,,0,61,61,61,1,62,Alex,Rej,Participant_Images/6400d8ca785ee04d9b02ae9c/6400d8ca785ee04d9b02ae9c_Images/6400d8ca785ee04d9b02ae9c_Image_8.jpeg,did not like,4.988446431,,,,,,,,,,,,,,
,,,,,,,space,0.4446,NAN,,NAN,,0,62,62,62,1,63,Alex,Rej,Participant_Images/6400d8ca785ee04d9b02ae9c/6400d8ca785ee04d9b02ae9c_Images/6400d8ca785ee04d9b02ae9c_Image_24.jpeg,liked,3.470791822,,,,,,,,,,,,,,
,,,,,,,space,0.4418,NAN,,NAN,,0,63,63,63,1,64,Alex,Rej,Participant_Images/6400d8ca785ee04d9b02ae9c/6400d8ca785ee04d9b02ae9c_Images/6400d8ca785ee04d9b02ae9c_Image_22.jpeg,did not like,3.820572462,,,,,,,,,,,,,,
,,,,,,,,,,,,,,,,,,,,,,,,s,1,1.541,space,4.6408,0,0,0,0,1,h,1.2121,,
,,,,,,,,,NAN,,NAN,,0,64,64,64,1,65,Alex,Rej,Participant_Images/6400d8ca785ee04d9b02ae9c/6400d8ca785ee04d9b02ae9c_Images/6400d8ca785ee04d9b02ae9c_Image_28.jpeg,did not like,2.455989137,,,,,,,,,,,,,,
,,,,,,,space,0.6057,NAN,,NAN,,0,65,65,65,1,66,Alex,Rej,Participant_Images/6400d8ca785ee04d9b02ae9c/6400d8ca785ee04d9b02ae9c_Images/6400d8ca785ee04d9b02ae9c_Image_5.jpeg,liked,3.79605092,,,,,,,,,,,,,,
,,,,,,,space,0.3347,NAN,,NAN,,0,66,66,66,1,67,Alex,Rej,Participant_Images/6400d8ca785ee04d9b02ae9c/6400d8ca785ee04d9b02ae9c_Images/6400d8ca785ee04d9b02ae9c_Image_20.jpeg,liked,3.562416326,,,,,,,,,,,,,,
,,,,,,,space,0.3452,NAN,,NAN,,0,67,67,67,1,68,Alex,Rej,Participant_Images/6400d8ca785ee04d9b02ae9c/6400d8ca785ee04d9b02ae9c_Images/6400d8ca785ee04d9b02ae9c_Image_4.jpeg,did not like,2.843822497,,,,,,,,,,,,,,
,,,,,,,space,0.2873,NAN,,NAN,,0,68,68,68,1,69,Alex,Rej,Participant_Images/6400d8ca785ee04d9b02ae9c/6400d8ca785ee04d9b02ae9c_Images/6400d8ca785ee04d9b02ae9c_Image_1.jpeg,did not like,3.546495948,,,,,,,,,,,,,,
,,,,,,,,,,,,,,,,,,,,,,,,c,0,1.3645,space,0.6755,0,0,0,0,1,,,,
,,,,,,,,,NAN,,NAN,,0,69,69,69,1,70,Alex,Rej,Participant_Images/6400d8ca785ee04d9b02ae9c/6400d8ca785ee04d9b02ae9c_Images/6400d8ca785ee04d9b02ae9c_Image_30.jpeg,did not like,1.672012706,,,,,,,,,,,,,,
,,,,,,,space,0.7529,NAN,,NAN,,0,70,70,70,1,71,Alex,Rej,Participant_Images/6400d8ca785ee04d9b02ae9c/6400d8ca785ee04d9b02ae9c_Images/6400d8ca785ee04d9b02ae9c_Image_12.jpeg,liked,4.942172136,,,,,,,,,,,,,,
,,,,,,,space,0.5937,NAN,,NAN,,0,71,71,71,1,72,Alex,Rej,Participant_Images/6400d8ca785ee04d9b02ae9c/6400d8ca785ee04d9b02ae9c_Images/6400d8ca785ee04d9b02ae9c_Image_13.jpeg,did not like,2.50187214,,,,,,,,,,,,,,
,,,,,,,space,0.403,NAN,,NAN,,0,72,72,72,1,73,Alex,Rej,Participant_Images/6400d8ca785ee04d9b02ae9c/6400d8ca785ee04d9b02ae9c_Images/6400d8ca785ee04d9b02ae9c_Image_27.jpeg,did not like,2.071164779,,,,,,,,,,,,,,
,,,,,,,space,0.418,NAN,,NAN,,0,73,73,73,1,74,Alex,Rej,Participant_Images/6400d8ca785ee04d9b02ae9c/6400d8ca785ee04d9b02ae9c_Images/6400d8ca785ee04d9b02ae9c_Image_9.jpeg,did not like,5.336503566,,,,,,,,,,,,,,
,,,,,,,,,,,,,,,,,,,,,,,,c,0,1.2014,space,0.3828,0,0,0,0,1,,,,
,,,,,,,,,NAN,,NAN,,0,74,74,74,1,75,Alex,Rej,Participant_Images/6400d8ca785ee04d9b02ae9c/6400d8ca785ee04d9b02ae9c_Images/6400d8ca785ee04d9b02ae9c_Image_14.jpeg,did not like,2.642157193,,,,,,,,,,,,,,
,,,,,,,space,0.4716,NAN,,NAN,,0,75,75,75,1,76,Alex,Rej,Participant_Images/6400d8ca785ee04d9b02ae9c/6400d8ca785ee04d9b02ae9c_Images/6400d8ca785ee04d9b02ae9c_Image_26.jpeg,did not like,4.456234322,,,,,,,,,,,,,,
,,,,,,,space,0.8923,NAN,,NAN,,0,76,76,76,1,77,Alex,Rej,Participant_Images/6400d8ca785ee04d9b02ae9c/6400d8ca785ee04d9b02ae9c_Images/6400d8ca785ee04d9b02ae9c_Image_16.jpeg,did not like,4.438512181,,,,,,,,,,,,,,
,,,,,,,space,0.4616,NAN,,NAN,,0,77,77,77,1,78,Alex,Rej,Participant_Images/6400d8ca785ee04d9b02ae9c/6400d8ca785ee04d9b02ae9c_Images/6400d8ca785ee04d9b02ae9c_Image_23.jpeg,liked,2.682944783,,,,,,,,,,,,,,
,,,,,,,space,0.312,NAN,,NAN,,0,78,78,78,1,79,Alex,Rej,Participant_Images/6400d8ca785ee04d9b02ae9c/6400d8ca785ee04d9b02ae9c_Images/6400d8ca785ee04d9b02ae9c_Image_19.jpeg,liked,4.51984296,,,,,,,,,,,,,,
,,,,,,,,,,,,,,,,,,,,,,,,s,1,1.2672,space,1.0813,0,0,0,0,1,h,1.0864,,
,,,,,,,,,NAN,,NAN,,0,79,79,79,1,80,Alex,Rej,Participant_Images/6400d8ca785ee04d9b02ae9c/6400d8ca785ee04d9b02ae9c_Images/6400d8ca785ee04d9b02ae9c_Image_29.jpeg,liked,3.195382774,,,,,,,,,,,,,,
,,,,,,,space,0.7113,NAN,,NAN,,0,80,80,80,1,81,Alex,Rej,Participant_Images/6400d8ca785ee04d9b02ae9c/6400d8ca785ee04d9b02ae9c_Images/6400d8ca785ee04d9b02ae9c_Image_21.jpeg,did not like,1.779333479,,,,,,,,,,,,,,
,,,,,,,space,0.5119,NAN,,NAN,,0,81,81,81,1,82,Alex,Rej,Participant_Images/6400d8ca785ee04d9b02ae9c/6400d8ca785ee04d9b02ae9c_Images/6400d8ca785ee04d9b02ae9c_Image_25.jpeg,did not like,4.312468682,,,,,,,,,,,,,,
,,,,,,,space,0.9985,NAN,,NAN,,0,82,82,82,1,83,Alex,Rej,Participant_Images/6400d8ca785ee04d9b02ae9c/6400d8ca785ee04d9b02ae9c_Images/6400d8ca785ee04d9b02ae9c_Image_7.jpeg,did not like,4.940433059,,,,,,,,,,,,,,
,,,,,,,space,0.9004,NAN,,NAN,,0,83,83,83,1,84,Alex,Rej,Participant_Images/6400d8ca785ee04d9b02ae9c/6400d8ca785ee04d9b02ae9c_Images/6400d8ca785ee04d9b02ae9c_Image_10.jpeg,did not like,2.7105123,,,,,,,,,,,,,,
,,,,,,,,,,,,,,,,,,,,,,,,s,1,1.1586,space,1.0478,0,0,0,0,1,h,1.1511,,
,,,,,,,,,NAN,,NAN,,0,84,84,84,1,85,Alex,Rej,Participant_Images/6400d8ca785ee04d9b02ae9c/6400d8ca785ee04d9b02ae9c_Images/6400d8ca785ee04d9b02ae9c_Image_18.jpeg,did not like,3.602308302,,,,,,,,,,,,,,
,,,,,,,space,1.4197,NAN,,NAN,,0,85,85,85,1,86,Alex,Rej,Participant_Images/6400d8ca785ee04d9b02ae9c/6400d8ca785ee04d9b02ae9c_Images/6400d8ca785ee04d9b02ae9c_Image_17.jpeg,did not like,4.106391878,,,,,,,,,,,,,,
,,,,,,,space,0.6057,NAN,,NAN,,0,86,86,86,1,87,Alex,Rej,Participant_Images/6400d8ca785ee04d9b02ae9c/6400d8ca785ee04d9b02ae9c_Images/6400d8ca785ee04d9b02ae9c_Image_3.jpeg,did not like,3.799433026,,,,,,,,,,,,,,
,,,,,,,space,0.7333,NAN,,NAN,,0,87,87,87,1,88,Alex,Rej,Participant_Images/6400d8ca785ee04d9b02ae9c/6400d8ca785ee04d9b02ae9c_Images/6400d8ca785ee04d9b02ae9c_Image_11.jpeg,did not like,5.246980764,,,,,,,,,,,,,,
,,,,,,,space,1.0205,NAN,,NAN,,0,88,88,88,1,89,Alex,Rej,Participant_Images/6400d8ca785ee04d9b02ae9c/6400d8ca785ee04d9b02ae9c_Images/6400d8ca785ee04d9b02ae9c_Image_2.jpeg,did not like,3.30081769,,,,,,,,,,,,,,
,,,,,,,,,,,,,,,,,,,,,,,,,999,,space,2.0732,0,0,0,0,1,,,,
,,,,,,,,,1,,2,,0,89,89,89,1,90,Alex,Rej,Participant_Images/6400d8ca785ee04d9b02ae9c/6400d8ca785ee04d9b02ae9c_Images/6400d8ca785ee04d9b02ae9c_Image_6.jpeg,liked,1.661473164,,,,,,,,,,,,,,
,,,,,space,0.9578,space,0.791,NAN,,NAN,,0,90,90,90,1,91,Charlie,Acc,Participant_Images/6400d8ca785ee04d9b02ae9c/6400d8ca785ee04d9b02ae9c_Images/6400d8ca785ee04d9b02ae9c_Image_24.jpeg,liked,3.613205605,,,,,,,,,,,,,,
,,,,,,,space,0.4499,NAN,,NAN,,0,91,91,91,1,92,Charlie,Acc,Participant_Images/6400d8ca785ee04d9b02ae9c/6400d8ca785ee04d9b02ae9c_Images/6400d8ca785ee04d9b02ae9c_Image_27.jpeg,did not like,4.988446431,,,,,,,,,,,,,,
,,,,,,,space,0.415,NAN,,NAN,,0,92,92,92,1,93,Charlie,Acc,Participant_Images/6400d8ca785ee04d9b02ae9c/6400d8ca785ee04d9b02ae9c_Images/6400d8ca785ee04d9b02ae9c_Image_28.jpeg,did not like,3.470791822,,,,,,,,,,,,,,
,,,,,,,space,0.33,NAN,,NAN,,0,93,93,93,1,94,Charlie,Acc,Participant_Images/6400d8ca785ee04d9b02ae9c/6400d8ca785ee04d9b02ae9c_Images/6400d8ca785ee04d9b02ae9c_Image_14.jpeg,did not like,3.820572462,,,,,,,,,,,,,,
,,,,,,,,,,,,,,,,,,,,,,,,s,1,1.4194,space,0.4954,0,0,0,0,1,h,0.3987,,
,,,,,,,,,NAN,,NAN,,0,94,94,94,1,95,Charlie,Acc,Participant_Images/6400d8ca785ee04d9b02ae9c/6400d8ca785ee04d9b02ae9c_Images/6400d8ca785ee04d9b02ae9c_Image_15.jpeg,liked,2.455989137,,,,,,,,,,,,,,
,,,,,,,space,0.3397,NAN,,NAN,,0,95,95,95,1,96,Charlie,Acc,Participant_Images/6400d8ca785ee04d9b02ae9c/6400d8ca785ee04d9b02ae9c_Images/6400d8ca785ee04d9b02ae9c_Image_25.jpeg,did not like,3.79605092,,,,,,,,,,,,,,
,,,,,,,space,27.9899,NAN,,NAN,,0,96,96,96,1,97,Charlie,Acc,Participant_Images/6400d8ca785ee04d9b02ae9c/6400d8ca785ee04d9b02ae9c_Images/6400d8ca785ee04d9b02ae9c_Image_26.jpeg,did not like,3.562416326,,,,,,,,,,,,,,
,,,,,,,space,0.5,NAN,,NAN,,0,97,97,97,1,98,Charlie,Acc,Participant_Images/6400d8ca785ee04d9b02ae9c/6400d8ca785ee04d9b02ae9c_Images/6400d8ca785ee04d9b02ae9c_Image_10.jpeg,liked,2.843822497,,,,,,,,,,,,,,
,,,,,,,space,0.951,NAN,,NAN,,0,98,98,98,1,99,Charlie,Acc,Participant_Images/6400d8ca785ee04d9b02ae9c/6400d8ca785ee04d9b02ae9c_Images/6400d8ca785ee04d9b02ae9c_Image_30.jpeg,liked,3.546495948,,,,,,,,,,,,,,
,,,,,,,,,,,,,,,,,,,,,,,,,999,,space,5.4511,0,0,0,0,1,,,,
,,,,,,,,,NAN,,NAN,,0,99,99,99,1,100,Charlie,Acc,Participant_Images/6400d8ca785ee04d9b02ae9c/6400d8ca785ee04d9b02ae9c_Images/6400d8ca785ee04d9b02ae9c_Image_22.jpeg,liked,1.672012706,,,,,,,,,,,,,,
,,,,,,,space,0.3901,NAN,,NAN,,0,100,100,100,1,101,Charlie,Acc,Participant_Images/6400d8ca785ee04d9b02ae9c/6400d8ca785ee04d9b02ae9c_Images/6400d8ca785ee04d9b02ae9c_Image_7.jpeg,did not like,4.942172136,,,,,,,,,,,,,,
,,,,,,,space,0.6774,NAN,,NAN,,0,101,101,101,1,102,Charlie,Acc,Participant_Images/6400d8ca785ee04d9b02ae9c/6400d8ca785ee04d9b02ae9c_Images/6400d8ca785ee04d9b02ae9c_Image_11.jpeg,did not like,2.50187214,,,,,,,,,,,,,,
,,,,,,,space,1.1806,NAN,,NAN,,0,102,102,102,1,103,Charlie,Acc,Participant_Images/6400d8ca785ee04d9b02ae9c/6400d8ca785ee04d9b02ae9c_Images/6400d8ca785ee04d9b02ae9c_Image_4.jpeg,liked,2.071164779,,,,,,,,,,,,,,
,,,,,,,space,0.3466,NAN,,NAN,,0,103,103,103,1,104,Charlie,Acc,Participant_Images/6400d8ca785ee04d9b02ae9c/6400d8ca785ee04d9b02ae9c_Images/6400d8ca785ee04d9b02ae9c_Image_3.jpeg,liked,5.336503566,,,,,,,,,,,,,,
,,,,,,,,,,,,,,,,,,,,,,,,,999,,space,10.9533,0,0,0,0,1,,,,
,,,,,,,,,NAN,,NAN,,0,104,104,104,1,105,Charlie,Acc,Participant_Images/6400d8ca785ee04d9b02ae9c/6400d8ca785ee04d9b02ae9c_Images/6400d8ca785ee04d9b02ae9c_Image_20.jpeg,liked,2.642157193,,,,,,,,,,,,,,
,,,,,,,space,0.6683,NAN,,NAN,,0,105,105,105,1,106,Charlie,Acc,Participant_Images/6400d8ca785ee04d9b02ae9c/6400d8ca785ee04d9b02ae9c_Images/6400d8ca785ee04d9b02ae9c_Image_5.jpeg,liked,4.456234322,,,,,,,,,,,,,,
,,,,,,,space,1.0708,NAN,,NAN,,0,106,106,106,1,107,Charlie,Acc,Participant_Images/6400d8ca785ee04d9b02ae9c/6400d8ca785ee04d9b02ae9c_Images/6400d8ca785ee04d9b02ae9c_Image_16.jpeg,liked,4.438512181,,,,,,,,,,,,,,
,,,,,,,space,0.7593,NAN,,NAN,,0,107,107,107,1,108,Charlie,Acc,Participant_Images/6400d8ca785ee04d9b02ae9c/6400d8ca785ee04d9b02ae9c_Images/6400d8ca785ee04d9b02ae9c_Image_9.jpeg,liked,2.682944783,,,,,,,,,,,,,,
,,,,,,,space,0.6988,NAN,,NAN,,0,108,108,108,1,109,Charlie,Acc,Participant_Images/6400d8ca785ee04d9b02ae9c/6400d8ca785ee04d9b02ae9c_Images/6400d8ca785ee04d9b02ae9c_Image_8.jpeg,liked,4.51984296,,,,,,,,,,,,,,
,,,,,,,,,,,,,,,,,,,,,,,,,999,,space,0.748,0,0,0,0,1,,,,
,,,,,,,,,NAN,,NAN,,0,109,109,109,1,110,Charlie,Acc,Participant_Images/6400d8ca785ee04d9b02ae9c/6400d8ca785ee04d9b02ae9c_Images/6400d8ca785ee04d9b02ae9c_Image_21.jpeg,liked,3.195382774,,,,,,,,,,,,,,
,,,,,,,space,1.2088,NAN,,NAN,,0,110,110,110,1,111,Charlie,Acc,Participant_Images/6400d8ca785ee04d9b02ae9c/6400d8ca785ee04d9b02ae9c_Images/6400d8ca785ee04d9b02ae9c_Image_13.jpeg,did not like,1.779333479,,,,,,,,,,,,,,
,,,,,,,space,1.9124,NAN,,NAN,,0,111,111,111,1,112,Charlie,Acc,Participant_Images/6400d8ca785ee04d9b02ae9c/6400d8ca785ee04d9b02ae9c_Images/6400d8ca785ee04d9b02ae9c_Image_12.jpeg,liked,4.312468682,,,,,,,,,,,,,,
,,,,,,,space,0.7649,NAN,,NAN,,0,112,112,112,1,113,Charlie,Acc,Participant_Images/6400d8ca785ee04d9b02ae9c/6400d8ca785ee04d9b02ae9c_Images/6400d8ca785ee04d9b02ae9c_Image_18.jpeg,liked,4.940433059,,,,,,,,,,,,,,
,,,,,,,space,0.4447,NAN,,NAN,,0,113,113,113,1,114,Charlie,Acc,Participant_Images/6400d8ca785ee04d9b02ae9c/6400d8ca785ee04d9b02ae9c_Images/6400d8ca785ee04d9b02ae9c_Image_23.jpeg,liked,2.7105123,,,,,,,,,,,,,,
,,,,,,,,,,,,,,,,,,,,,,,,c,0,1.3582,space,0.7156,0,0,0,0,1,,,,
,,,,,,,,,NAN,,NAN,,0,114,114,114,1,115,Charlie,Acc,Participant_Images/6400d8ca785ee04d9b02ae9c/6400d8ca785ee04d9b02ae9c_Images/6400d8ca785ee04d9b02ae9c_Image_2.jpeg,liked,3.602308302,,,,,,,,,,,,,,
,,,,,,,space,0.6939,NAN,,NAN,,0,115,115,115,1,116,Charlie,Acc,Participant_Images/6400d8ca785ee04d9b02ae9c/6400d8ca785ee04d9b02ae9c_Images/6400d8ca785ee04d9b02ae9c_Image_6.jpeg,liked,4.106391878,,,,,,,,,,,,,,
,,,,,,,space,0.8016,NAN,,NAN,,0,116,116,116,1,117,Charlie,Acc,Participant_Images/6400d8ca785ee04d9b02ae9c/6400d8ca785ee04d9b02ae9c_Images/6400d8ca785ee04d9b02ae9c_Image_17.jpeg,liked,3.799433026,,,,,,,,,,,,,,
,,,,,,,space,0.5847,NAN,,NAN,,0,117,117,117,1,118,Charlie,Acc,Participant_Images/6400d8ca785ee04d9b02ae9c/6400d8ca785ee04d9b02ae9c_Images/6400d8ca785ee04d9b02ae9c_Image_1.jpeg,liked,5.246980764,,,,,,,,,,,,,,
,,,,,,,space,0.4208,NAN,,NAN,,0,118,118,118,1,119,Charlie,Acc,Participant_Images/6400d8ca785ee04d9b02ae9c/6400d8ca785ee04d9b02ae9c_Images/6400d8ca785ee04d9b02ae9c_Image_29.jpeg,liked,3.30081769,,,,,,,,,,,,,,
,,,,,,,,,,,,,,,,,,,,,,,,c,0,1.1263,space,0.7985,0,0,0,0,1,,,,
,,,,,,,,,4,,4,,0,119,119,119,1,120,Charlie,Acc,Participant_Images/6400d8ca785ee04d9b02ae9c/6400d8ca785ee04d9b02ae9c_Images/6400d8ca785ee04d9b02ae9c_Image_19.jpeg,did not like,1.661473164,,,,,,,,,,,,,,
,,,,,space,0.5119,space,0.536,NAN,,NAN,,0,120,120,120,1,121,Sam,Neutral,Participant_Images/6400d8ca785ee04d9b02ae9c/6400d8ca785ee04d9b02ae9c_Images/6400d8ca785ee04d9b02ae9c_Image_25.jpeg,did not like,3.613205605,,,,,,,,,,,,,,
,,,,,,,space,7.5567,NAN,,NAN,,0,121,121,121,1,122,Sam,Neutral,Participant_Images/6400d8ca785ee04d9b02ae9c/6400d8ca785ee04d9b02ae9c_Images/6400d8ca785ee04d9b02ae9c_Image_22.jpeg,liked,4.988446431,,,,,,,,,,,,,,
,,,,,,,space,0.4975,NAN,,NAN,,0,122,122,122,1,123,Sam,Neutral,Participant_Images/6400d8ca785ee04d9b02ae9c/6400d8ca785ee04d9b02ae9c_Images/6400d8ca785ee04d9b02ae9c_Image_14.jpeg,did not like,3.470791822,,,,,,,,,,,,,,
,,,,,,,space,0.8258,NAN,,NAN,,0,123,123,123,1,124,Sam,Neutral,Participant_Images/6400d8ca785ee04d9b02ae9c/6400d8ca785ee04d9b02ae9c_Images/6400d8ca785ee04d9b02ae9c_Image_16.jpeg,liked,3.820572462,,,,,,,,,,,,,,
,,,,,,,,,,,,,,,,,,,,,,,,,999,,space,0.4928,0,0,0,0,1,,,,
,,,,,,,,,NAN,,NAN,,0,124,124,124,1,125,Sam,Neutral,Participant_Images/6400d8ca785ee04d9b02ae9c/6400d8ca785ee04d9b02ae9c_Images/6400d8ca785ee04d9b02ae9c_Image_5.jpeg,did not like,2.455989137,,,,,,,,,,,,,,
,,,,,,,space,25.7258,NAN,,NAN,,0,125,125,125,1,126,Sam,Neutral,Participant_Images/6400d8ca785ee04d9b02ae9c/6400d8ca785ee04d9b02ae9c_Images/6400d8ca785ee04d9b02ae9c_Image_10.jpeg,liked,3.79605092,,,,,,,,,,,,,,
,,,,,,,space,24.7808,NAN,,NAN,,0,126,126,126,1,127,Sam,Neutral,Participant_Images/6400d8ca785ee04d9b02ae9c/6400d8ca785ee04d9b02ae9c_Images/6400d8ca785ee04d9b02ae9c_Image_18.jpeg,liked,3.562416326,,,,,,,,,,,,,,
,,,,,,,space,0.3164,NAN,,NAN,,0,127,127,127,1,128,Sam,Neutral,Participant_Images/6400d8ca785ee04d9b02ae9c/6400d8ca785ee04d9b02ae9c_Images/6400d8ca785ee04d9b02ae9c_Image_3.jpeg,liked,2.843822497,,,,,,,,,,,,,,
,,,,,,,space,0.4952,NAN,,NAN,,0,128,128,128,1,129,Sam,Neutral,Participant_Images/6400d8ca785ee04d9b02ae9c/6400d8ca785ee04d9b02ae9c_Images/6400d8ca785ee04d9b02ae9c_Image_6.jpeg,did not like,3.546495948,,,,,,,,,,,,,,
,,,,,,,,,,,,,,,,,,,,,,,,c,0,2.7429,space,0.8191,0,0,0,0,1,,,,
,,,,,,,,,NAN,,NAN,,0,129,129,129,1,130,Sam,Neutral,Participant_Images/6400d8ca785ee04d9b02ae9c/6400d8ca785ee04d9b02ae9c_Images/6400d8ca785ee04d9b02ae9c_Image_9.jpeg,did not like,1.672012706,,,,,,,,,,,,,,
,,,,,,,space,0.9808,NAN,,NAN,,0,130,130,130,1,131,Sam,Neutral,Participant_Images/6400d8ca785ee04d9b02ae9c/6400d8ca785ee04d9b02ae9c_Images/6400d8ca785ee04d9b02ae9c_Image_4.jpeg,did not like,4.942172136,,,,,,,,,,,,,,
,,,,,,,space,1.2708,NAN,,NAN,,0,131,131,131,1,132,Sam,Neutral,Participant_Images/6400d8ca785ee04d9b02ae9c/6400d8ca785ee04d9b02ae9c_Images/6400d8ca785ee04d9b02ae9c_Image_15.jpeg,liked,2.50187214,,,,,,,,,,,,,,
,,,,,,,space,0.802,NAN,,NAN,,0,132,132,132,1,133,Sam,Neutral,Participant_Images/6400d8ca785ee04d9b02ae9c/6400d8ca785ee04d9b02ae9c_Images/6400d8ca785ee04d9b02ae9c_Image_29.jpeg,liked,2.071164779,,,,,,,,,,,,,,
,,,,,,,space,2.8872,NAN,,NAN,,0,133,133,133,1,134,Sam,Neutral,Participant_Images/6400d8ca785ee04d9b02ae9c/6400d8ca785ee04d9b02ae9c_Images/6400d8ca785ee04d9b02ae9c_Image_13.jpeg,liked,5.336503566,,,,,,,,,,,,,,
,,,,,,,,,,,,,,,,,,,,,,,,c,0,1.3964,space,1.2528,0,0,0,0,1,,,,
,,,,,,,,,NAN,,NAN,,0,134,134,134,1,135,Sam,Neutral,Participant_Images/6400d8ca785ee04d9b02ae9c/6400d8ca785ee04d9b02ae9c_Images/6400d8ca785ee04d9b02ae9c_Image_21.jpeg,liked,2.642157193,,,,,,,,,,,,,,
,,,,,,,space,1.596,NAN,,NAN,,0,135,135,135,1,136,Sam,Neutral,Participant_Images/6400d8ca785ee04d9b02ae9c/6400d8ca785ee04d9b02ae9c_Images/6400d8ca785ee04d9b02ae9c_Image_7.jpeg,did not like,4.456234322,,,,,,,,,,,,,,
,,,,,,,space,14.4012,NAN,,NAN,,0,136,136,136,1,137,Sam,Neutral,Participant_Images/6400d8ca785ee04d9b02ae9c/6400d8ca785ee04d9b02ae9c_Images/6400d8ca785ee04d9b02ae9c_Image_26.jpeg,liked,4.438512181,,,,,,,,,,,,,,
,,,,,,,space,0.6952,NAN,,NAN,,0,137,137,137,1,138,Sam,Neutral,Participant_Images/6400d8ca785ee04d9b02ae9c/6400d8ca785ee04d9b02ae9c_Images/6400d8ca785ee04d9b02ae9c_Image_19.jpeg,liked,2.682944783,,,,,,,,,,,,,,
,,,,,,,space,1.034,NAN,,NAN,,0,138,138,138,1,139,Sam,Neutral,Participant_Images/6400d8ca785ee04d9b02ae9c/6400d8ca785ee04d9b02ae9c_Images/6400d8ca785ee04d9b02ae9c_Image_8.jpeg,did not like,4.51984296,,,,,,,,,,,,,,
,,,,,,,,,,,,,,,,,,,,,,,,c,0,0.753,space,0.8649,0,0,0,0,1,,,,
,,,,,,,,,NAN,,NAN,,0,139,139,139,1,140,Sam,Neutral,Participant_Images/6400d8ca785ee04d9b02ae9c/6400d8ca785ee04d9b02ae9c_Images/6400d8ca785ee04d9b02ae9c_Image_12.jpeg,did not like,3.195382774,,,,,,,,,,,,,,
,,,,,,,space,0.6647,NAN,,NAN,,0,140,140,140,1,141,Sam,Neutral,Participant_Images/6400d8ca785ee04d9b02ae9c/6400d8ca785ee04d9b02ae9c_Images/6400d8ca785ee04d9b02ae9c_Image_17.jpeg,liked,1.779333479,,,,,,,,,,,,,,
,,,,,,,space,0.4502,NAN,,NAN,,0,141,141,141,1,142,Sam,Neutral,Participant_Images/6400d8ca785ee04d9b02ae9c/6400d8ca785ee04d9b02ae9c_Images/6400d8ca785ee04d9b02ae9c_Image_23.jpeg,did not like,4.312468682,,,,,,,,,,,,,,
,,,,,,,space,1.2356,NAN,,NAN,,0,142,142,142,1,143,Sam,Neutral,Participant_Images/6400d8ca785ee04d9b02ae9c/6400d8ca785ee04d9b02ae9c_Images/6400d8ca785ee04d9b02ae9c_Image_24.jpeg,did not like,4.940433059,,,,,,,,,,,,,,
,,,,,,,space,2.0971,NAN,,NAN,,0,143,143,143,1,144,Sam,Neutral,Participant_Images/6400d8ca785ee04d9b02ae9c/6400d8ca785ee04d9b02ae9c_Images/6400d8ca785ee04d9b02ae9c_Image_1.jpeg,liked,2.7105123,,,,,,,,,,,,,,
,,,,,,,,,,,,,,,,,,,,,,,,c,0,3.5407,space,2.4159,0,0,0,0,1,,,,
,,,,,,,,,NAN,,NAN,,0,144,144,144,1,145,Sam,Neutral,Participant_Images/6400d8ca785ee04d9b02ae9c/6400d8ca785ee04d9b02ae9c_Images/6400d8ca785ee04d9b02ae9c_Image_11.jpeg,did not like,3.602308302,,,,,,,,,,,,,,
,,,,,,,space,0.6821,NAN,,NAN,,0,145,145,145,1,146,Sam,Neutral,Participant_Images/6400d8ca785ee04d9b02ae9c/6400d8ca785ee04d9b02ae9c_Images/6400d8ca785ee04d9b02ae9c_Image_30.jpeg,liked,4.106391878,,,,,,,,,,,,,,
,,,,,,,space,0.739,NAN,,NAN,,0,146,146,146,1,147,Sam,Neutral,Participant_Images/6400d8ca785ee04d9b02ae9c/6400d8ca785ee04d9b02ae9c_Images/6400d8ca785ee04d9b02ae9c_Image_2.jpeg,did not like,3.799433026,,,,,,,,,,,,,,
,,,,,,,space,0.4257,NAN,,NAN,,0,147,147,147,1,148,Sam,Neutral,Participant_Images/6400d8ca785ee04d9b02ae9c/6400d8ca785ee04d9b02ae9c_Images/6400d8ca785ee04d9b02ae9c_Image_27.jpeg,liked,5.246980764,,,,,,,,,,,,,,
,,,,,,,space,0.7326,NAN,,NAN,,0,148,148,148,1,149,Sam,Neutral,Participant_Images/6400d8ca785ee04d9b02ae9c/6400d8ca785ee04d9b02ae9c_Images/6400d8ca785ee04d9b02ae9c_Image_28.jpeg,did not like,3.30081769,,,,,,,,,,,,,,
,,,,,,,,,,,,,,,,,,,,,,,,c,0,1.1771,space,0.3889,0,0,0,0,1,,,,
,,,,,,,,,3,,4,,0,149,149,149,1,150,Sam,Neutral,Participant_Images/6400d8ca785ee04d9b02ae9c/6400d8ca785ee04d9b02ae9c_Images/6400d8ca785ee04d9b02ae9c_Image_20.jpeg,did not like,1.661473164,,,,,,,,,,,,,,
,,,,,,,,,,,,,,,,,,,,,,,,,,,,,,,,,,,,space,1.5089