PROLIFIC_ID,endwelcomescreen_keys.keys,endwelcomescreen_keys.rt,endinstructionscreen_keys.keys,endinstructionscreen_keys.rt,endpartnermatch_keys.keys,endpartnermatch_keys.rt,sharenextphoto_key.keys,sharenextphoto_key.rt,salience_rating,key_resp.keys,stress_level,stresslevel_keypress.keys,entiretaskloop.thisRepN,entiretaskloop.thisTrialN,entiretaskloop.thisN,entiretaskloop.thisIndex,entiretaskloop.ran,TrialNumber,Partner,Condition,Photos,Feedback,FeedbackWait,choice_keys.keys,playlottery,resumeafterlottery_keys.keys,resumeafterlottery_keys.rt,lotteryloop.thisRepN,lotteryloop.thisTrialN,lotteryloop.thisN,lotteryloop.thisIndex,lotteryloop.ran,choice_keys.rt,lotteryguess_keys.keys,lotteryguess_keys.rt,end_screen_keys.keys,end_screen_keys.rt
64010a38650fe3a1a2de05a9,space,27.6989,,,,,,,,,,,,,,,,,,,,,,,,,,,,,,,,,,,
,,,,,,,,,,,,,,,,,,,,,,,,,,,,,,,,,,,,,
,,,space,25.8275,,,,,,,,,,,,,,,,,,,,,,,,,,,,,,,,,
,,,,,space,3.1697,space,1.775,NAN,,NAN,,0,0,0,0,1,1,Charlie,Rej,Participant_Images/64010a38650fe3a1a2de05a9/64010a38650fe3a1a2de05a9_Images/64010a38650fe3a1a2de05a9_Image_18.jpeg,did not like,3.613205605,,,,,,,,,,,,,,
,,,,,,,space,0.6563,NAN,,NAN,,0,1,1,1,1,2,Charlie,Rej,Participant_Images/64010a38650fe3a1a2de05a9/64010a38650fe3a1a2de05a9_Images/64010a38650fe3a1a2de05a9_Image_26.jpeg,did not like,4.988446431,,,,,,,,,,,,,,
,,,,,,,space,0.6514,NAN,,NAN,,0,2,2,2,1,3,Charlie,Rej,Participant_Images/64010a38650fe3a1a2de05a9/64010a38650fe3a1a2de05a9_Images/64010a38650fe3a1a2de05a9_Image_15.jpeg,liked,3.470791822,,,,,,,,,,,,,,
,,,,,,,space,0.7789,NAN,,NAN,,0,3,3,3,1,4,Charlie,Rej,Participant_Images/64010a38650fe3a1a2de05a9/64010a38650fe3a1a2de05a9_Images/64010a38650fe3a1a2de05a9_Image_17.jpeg,liked,3.820572462,,,,,,,,,,,,,,
,,,,,,,,,,,,,,,,,,,,,,,,,999,space,4.7655,0,0,0,0,1,,,,,
,,,,,,,,,NAN,,NAN,,0,4,4,4,1,5,Charlie,Rej,Participant_Images/64010a38650fe3a1a2de05a9/64010a38650fe3a1a2de05a9_Images/64010a38650fe3a1a2de05a9_Image_3.jpeg,did not like,2.455989137,,,,,,,,,,,,,,
,,,,,,,space,0.8194,NAN,,NAN,,0,5,5,5,1,6,Charlie,Rej,Participant_Images/64010a38650fe3a1a2de05a9/64010a38650fe3a1a2de05a9_Images/64010a38650fe3a1a2de05a9_Image_24.jpeg,did not like,3.79605092,,,,,,,,,,,,,,
,,,,,,,space,0.774,NAN,,NAN,,0,6,6,6,1,7,Charlie,Rej,Participant_Images/64010a38650fe3a1a2de05a9/64010a38650fe3a1a2de05a9_Images/64010a38650fe3a1a2de05a9_Image_19.jpeg,did not like,3.562416326,,,,,,,,,,,,,,
,,,,,,,space,0.5358,NAN,,NAN,,0,7,7,7,1,8,Charlie,Rej,Participant_Images/64010a38650fe3a1a2de05a9/64010a38650fe3a1a2de05a9_Images/64010a38650fe3a1a2de05a9_Image_6.jpeg,liked,2.843822497,,,,,,,,,,,,,,
,,,,,,,space,0.6879,NAN,,NAN,,0,8,8,8,1,9,Charlie,Rej,Participant_Images/64010a38650fe3a1a2de05a9/64010a38650fe3a1a2de05a9_Images/64010a38650fe3a1a2de05a9_Image_14.jpeg,did not like,3.546495948,,,,,,,,,,,,,,
,,,,,,,,,,,,,,,,,,,,,,,,c,0,space,0.8041,0,0,0,0,1,1.9638,,,,
,,,,,,,,,NAN,,NAN,,0,9,9,9,1,10,Charlie,Rej,Participant_Images/64010a38650fe3a1a2de05a9/64010a38650fe3a1a2de05a9_Images/64010a38650fe3a1a2de05a9_Image_12.jpeg,liked,1.672012706,,,,,,,,,,,,,,
,,,,,,,space,0.5349,NAN,,NAN,,0,10,10,10,1,11,Charlie,Rej,Participant_Images/64010a38650fe3a1a2de05a9/64010a38650fe3a1a2de05a9_Images/64010a38650fe3a1a2de05a9_Image_1.jpeg,did not like,4.942172136,,,,,,,,,,,,,,
,,,,,,,space,0.8464,NAN,,NAN,,0,11,11,11,1,12,Charlie,Rej,Participant_Images/64010a38650fe3a1a2de05a9/64010a38650fe3a1a2de05a9_Images/64010a38650fe3a1a2de05a9_Image_28.jpeg,liked,2.50187214,,,,,,,,,,,,,,
,,,,,,,space,0.6001,NAN,,NAN,,0,12,12,12,1,13,Charlie,Rej,Participant_Images/64010a38650fe3a1a2de05a9/64010a38650fe3a1a2de05a9_Images/64010a38650fe3a1a2de05a9_Image_11.jpeg,did not like,2.071164779,,,,,,,,,,,,,,
,,,,,,,space,0.4623,NAN,,NAN,,0,13,13,13,1,14,Charlie,Rej,Participant_Images/64010a38650fe3a1a2de05a9/64010a38650fe3a1a2de05a9_Images/64010a38650fe3a1a2de05a9_Image_10.jpeg,liked,5.336503566,,,,,,,,,,,,,,
,,,,,,,,,,,,,,,,,,,,,,,,s,1,space,0.7395,0,0,0,0,1,1.682,,,,
,,,,,,,,,NAN,,NAN,,0,14,14,14,1,15,Charlie,Rej,Participant_Images/64010a38650fe3a1a2de05a9/64010a38650fe3a1a2de05a9_Images/64010a38650fe3a1a2de05a9_Image_22.jpeg,liked,2.642157193,,,,,,,,,,,,,,
,,,,,,,space,0.8478,NAN,,NAN,,0,15,15,15,1,16,Charlie,Rej,Participant_Images/64010a38650fe3a1a2de05a9/64010a38650fe3a1a2de05a9_Images/64010a38650fe3a1a2de05a9_Image_2.jpeg,did not like,4.456234322,,,,,,,,,,,,,,
,,,,,,,space,0.8551,NAN,,NAN,,0,16,16,16,1,17,Charlie,Rej,Participant_Images/64010a38650fe3a1a2de05a9/64010a38650fe3a1a2de05a9_Images/64010a38650fe3a1a2de05a9_Image_5.jpeg,did not like,4.438512181,,,,,,,,,,,,,,
,,,,,,,space,0.4547,NAN,,NAN,,0,17,17,17,1,18,Charlie,Rej,Participant_Images/64010a38650fe3a1a2de05a9/64010a38650fe3a1a2de05a9_Images/64010a38650fe3a1a2de05a9_Image_7.jpeg,did not like,2.682944783,,,,,,,,,,,,,,
,,,,,,,space,0.6121,NAN,,NAN,,0,18,18,18,1,19,Charlie,Rej,Participant_Images/64010a38650fe3a1a2de05a9/64010a38650fe3a1a2de05a9_Images/64010a38650fe3a1a2de05a9_Image_29.jpeg,did not like,4.51984296,,,,,,,,,,,,,,
,,,,,,,,,,,,,,,,,,,,,,,,s,1,space,0.5078,0,0,0,0,1,1.7778,h,1.5078,,
,,,,,,,,,NAN,,NAN,,0,19,19,19,1,20,Charlie,Rej,Participant_Images/64010a38650fe3a1a2de05a9/64010a38650fe3a1a2de05a9_Images/64010a38650fe3a1a2de05a9_Image_13.jpeg,liked,3.195382774,,,,,,,,,,,,,,
,,,,,,,space,0.5185,NAN,,NAN,,0,20,20,20,1,21,Charlie,Rej,Participant_Images/64010a38650fe3a1a2de05a9/64010a38650fe3a1a2de05a9_Images/64010a38650fe3a1a2de05a9_Image_16.jpeg,liked,1.779333479,,,,,,,,,,,,,,
,,,,,,,space,0.6952,NAN,,NAN,,0,21,21,21,1,22,Charlie,Rej,Participant_Images/64010a38650fe3a1a2de05a9/64010a38650fe3a1a2de05a9_Images/64010a38650fe3a1a2de05a9_Image_8.jpeg,did not like,4.312468682,,,,,,,,,,,,,,
,,,,,,,space,0.7096,NAN,,NAN,,0,22,22,22,1,23,Charlie,Rej,Participant_Images/64010a38650fe3a1a2de05a9/64010a38650fe3a1a2de05a9_Images/64010a38650fe3a1a2de05a9_Image_25.jpeg,did not like,4.940433059,,,,,,,,,,,,,,
,,,,,,,space,0.7806,NAN,,NAN,,0,23,23,23,1,24,Charlie,Rej,Participant_Images/64010a38650fe3a1a2de05a9/64010a38650fe3a1a2de05a9_Images/64010a38650fe3a1a2de05a9_Image_21.jpeg,did not like,2.7105123,,,,,,,,,,,,,,
,,,,,,,,,,,,,,,,,,,,,,,,c,0,space,0.622,0,0,0,0,1,2.5877,,,,
,,,,,,,,,NAN,,NAN,,0,24,24,24,1,25,Charlie,Rej,Participant_Images/64010a38650fe3a1a2de05a9/64010a38650fe3a1a2de05a9_Images/64010a38650fe3a1a2de05a9_Image_4.jpeg,did not like,3.602308302,,,,,,,,,,,,,,
,,,,,,,space,0.6266,NAN,,NAN,,0,25,25,25,1,26,Charlie,Rej,Participant_Images/64010a38650fe3a1a2de05a9/64010a38650fe3a1a2de05a9_Images/64010a38650fe3a1a2de05a9_Image_9.jpeg,did not like,4.106391878,,,,,,,,,,,,,,
,,,,,,,space,0.4243,NAN,,NAN,,0,26,26,26,1,27,Charlie,Rej,Participant_Images/64010a38650fe3a1a2de05a9/64010a38650fe3a1a2de05a9_Images/64010a38650fe3a1a2de05a9_Image_30.jpeg,did not like,3.799433026,,,,,,,,,,,,,,
,,,,,,,space,0.757,NAN,,NAN,,0,27,27,27,1,28,Charlie,Rej,Participant_Images/64010a38650fe3a1a2de05a9/64010a38650fe3a1a2de05a9_Images/64010a38650fe3a1a2de05a9_Image_20.jpeg,did not like,5.246980764,,,,,,,,,,,,,,
,,,,,,,space,0.6325,NAN,,NAN,,0,28,28,28,1,29,Charlie,Rej,Participant_Images/64010a38650fe3a1a2de05a9/64010a38650fe3a1a2de05a9_Images/64010a38650fe3a1a2de05a9_Image_23.jpeg,did not like,3.30081769,,,,,,,,,,,,,,
,,,,,,,,,,,,,,,,,,,,,,,,c,0,space,0.583,0,0,0,0,1,0.8595,,,,
,,,,,,,,,1,,9,,0,29,29,29,1,30,Charlie,Rej,Participant_Images/64010a38650fe3a1a2de05a9/64010a38650fe3a1a2de05a9_Images/64010a38650fe3a1a2de05a9_Image_27.jpeg,did not like,1.661473164,,,,,,,,,,,,,,
,,,,,space,1.0695,space,1.0861,NAN,,NAN,,0,30,30,30,1,31,Riley,Acc,Participant_Images/64010a38650fe3a1a2de05a9/64010a38650fe3a1a2de05a9_Images/64010a38650fe3a1a2de05a9_Image_14.jpeg,liked,3.613205605,,,,,,,,,,,,,,
,,,,,,,space,0.6728,NAN,,NAN,,0,31,31,31,1,32,Riley,Acc,Participant_Images/64010a38650fe3a1a2de05a9/64010a38650fe3a1a2de05a9_Images/64010a38650fe3a1a2de05a9_Image_11.jpeg,liked,4.988446431,,,,,,,,,,,,,,
,,,,,,,space,0.7779,NAN,,NAN,,0,32,32,32,1,33,Riley,Acc,Participant_Images/64010a38650fe3a1a2de05a9/64010a38650fe3a1a2de05a9_Images/64010a38650fe3a1a2de05a9_Image_12.jpeg,liked,3.470791822,,,,,,,,,,,,,,
,,,,,,,space,0.5276,NAN,,NAN,,0,33,33,33,1,34,Riley,Acc,Participant_Images/64010a38650fe3a1a2de05a9/64010a38650fe3a1a2de05a9_Images/64010a38650fe3a1a2de05a9_Image_22.jpeg,liked,3.820572462,,,,,,,,,,,,,,
,,,,,,,,,,,,,,,,,,,,,,,,c,0,space,0.6527,0,0,0,0,1,1.3702,,,,
,,,,,,,,,NAN,,NAN,,0,34,34,34,1,35,Riley,Acc,Participant_Images/64010a38650fe3a1a2de05a9/64010a38650fe3a1a2de05a9_Images/64010a38650fe3a1a2de05a9_Image_5.jpeg,liked,2.455989137,,,,,,,,,,,,,,
,,,,,,,space,0.8631,NAN,,NAN,,0,35,35,35,1,36,Riley,Acc,Participant_Images/64010a38650fe3a1a2de05a9/64010a38650fe3a1a2de05a9_Images/64010a38650fe3a1a2de05a9_Image_9.jpeg,liked,3.79605092,,,,,,,,,,,,,,
,,,,,,,space,0.7859,NAN,,NAN,,0,36,36,36,1,37,Riley,Acc,Participant_Images/64010a38650fe3a1a2de05a9/64010a38650fe3a1a2de05a9_Images/64010a38650fe3a1a2de05a9_Image_18.jpeg,did not like,3.562416326,,,,,,,,,,,,,,
,,,,,,,space,0.5676,NAN,,NAN,,0,37,37,37,1,38,Riley,Acc,Participant_Images/64010a38650fe3a1a2de05a9/64010a38650fe3a1a2de05a9_Images/64010a38650fe3a1a2de05a9_Image_10.jpeg,liked,2.843822497,,,,,,,,,,,,,,
,,,,,,,space,0.6105,NAN,,NAN,,0,38,38,38,1,39,Riley,Acc,Participant_Images/64010a38650fe3a1a2de05a9/64010a38650fe3a1a2de05a9_Images/64010a38650fe3a1a2de05a9_Image_15.jpeg,did not like,3.546495948,,,,,,,,,,,,,,
,,,,,,,,,,,,,,,,,,,,,,,,s,1,space,0.8486,0,0,0,0,1,1.328,l,0.7706,,
,,,,,,,,,NAN,,NAN,,0,39,39,39,1,40,Riley,Acc,Participant_Images/64010a38650fe3a1a2de05a9/64010a38650fe3a1a2de05a9_Images/64010a38650fe3a1a2de05a9_Image_8.jpeg,liked,1.672012706,,,,,,,,,,,,,,
,,,,,,,space,1.0806,NAN,,NAN,,0,40,40,40,1,41,Riley,Acc,Participant_Images/64010a38650fe3a1a2de05a9/64010a38650fe3a1a2de05a9_Images/64010a38650fe3a1a2de05a9_Image_1.jpeg,liked,4.942172136,,,,,,,,,,,,,,
,,,,,,,space,0.7684,NAN,,NAN,,0,41,41,41,1,42,Riley,Acc,Participant_Images/64010a38650fe3a1a2de05a9/64010a38650fe3a1a2de05a9_Images/64010a38650fe3a1a2de05a9_Image_24.jpeg,liked,2.50187214,,,,,,,,,,,,,,
,,,,,,,space,0.5035,NAN,,NAN,,0,42,42,42,1,43,Riley,Acc,Participant_Images/64010a38650fe3a1a2de05a9/64010a38650fe3a1a2de05a9_Images/64010a38650fe3a1a2de05a9_Image_4.jpeg,liked,2.071164779,,,,,,,,,,,,,,
,,,,,,,space,0.5706,NAN,,NAN,,0,43,43,43,1,44,Riley,Acc,Participant_Images/64010a38650fe3a1a2de05a9/64010a38650fe3a1a2de05a9_Images/64010a38650fe3a1a2de05a9_Image_23.jpeg,did not like,5.336503566,,,,,,,,,,,,,,
,,,,,,,,,,,,,,,,,,,,,,,,c,0,space,0.595,0,0,0,0,1,1.7941,,,,
,,,,,,,,,NAN,,NAN,,0,44,44,44,1,45,Riley,Acc,Participant_Images/64010a38650fe3a1a2de05a9/64010a38650fe3a1a2de05a9_Images/64010a38650fe3a1a2de05a9_Image_19.jpeg,liked,2.642157193,,,,,,,,,,,,,,
,,,,,,,space,0.5627,NAN,,NAN,,0,45,45,45,1,46,Riley,Acc,Participant_Images/64010a38650fe3a1a2de05a9/64010a38650fe3a1a2de05a9_Images/64010a38650fe3a1a2de05a9_Image_28.jpeg,liked,4.456234322,,,,,,,,,,,,,,
,,,,,,,space,0.5698,NAN,,NAN,,0,46,46,46,1,47,Riley,Acc,Participant_Images/64010a38650fe3a1a2de05a9/64010a38650fe3a1a2de05a9_Images/64010a38650fe3a1a2de05a9_Image_17.jpeg,did not like,4.438512181,,,,,,,,,,,,,,
,,,,,,,space,0.7353,NAN,,NAN,,0,47,47,47,1,48,Riley,Acc,Participant_Images/64010a38650fe3a1a2de05a9/64010a38650fe3a1a2de05a9_Images/64010a38650fe3a1a2de05a9_Image_21.jpeg,liked,2.682944783,,,,,,,,,,,,,,
,,,,,,,space,0.5573,NAN,,NAN,,0,48,48,48,1,49,Riley,Acc,Participant_Images/64010a38650fe3a1a2de05a9/64010a38650fe3a1a2de05a9_Images/64010a38650fe3a1a2de05a9_Image_3.jpeg,liked,4.51984296,,,,,,,,,,,,,,
,,,,,,,,,,,,,,,,,,,,,,,,c,0,space,1.0129,0,0,0,0,1,1.1072,,,,
,,,,,,,,,NAN,,NAN,,0,49,49,49,1,50,Riley,Acc,Participant_Images/64010a38650fe3a1a2de05a9/64010a38650fe3a1a2de05a9_Images/64010a38650fe3a1a2de05a9_Image_26.jpeg,did not like,3.195382774,,,,,,,,,,,,,,
,,,,,,,space,0.4315,NAN,,NAN,,0,50,50,50,1,51,Riley,Acc,Participant_Images/64010a38650fe3a1a2de05a9/64010a38650fe3a1a2de05a9_Images/64010a38650fe3a1a2de05a9_Image_25.jpeg,liked,1.779333479,,,,,,,,,,,,,,
,,,,,,,space,1.2368,NAN,,NAN,,0,51,51,51,1,52,Riley,Acc,Participant_Images/64010a38650fe3a1a2de05a9/64010a38650fe3a1a2de05a9_Images/64010a38650fe3a1a2de05a9_Image_16.jpeg,did not like,4.312468682,,,,,,,,,,,,,,
,,,,,,,space,1.0489,NAN,,NAN,,0,52,52,52,1,53,Riley,Acc,Participant_Images/64010a38650fe3a1a2de05a9/64010a38650fe3a1a2de05a9_Images/64010a38650fe3a1a2de05a9_Image_2.jpeg,liked,4.940433059,,,,,,,,,,,,,,
,,,,,,,space,0.82,NAN,,NAN,,0,53,53,53,1,54,Riley,Acc,Participant_Images/64010a38650fe3a1a2de05a9/64010a38650fe3a1a2de05a9_Images/64010a38650fe3a1a2de05a9_Image_13.jpeg,liked,2.7105123,,,,,,,,,,,,,,
,,,,,,,,,,,,,,,,,,,,,,,,c,0,space,1.8957,0,0,0,0,1,1.6746,,,,
,,,,,,,,,NAN,,NAN,,0,54,54,54,1,55,Riley,Acc,Participant_Images/64010a38650fe3a1a2de05a9/64010a38650fe3a1a2de05a9_Images/64010a38650fe3a1a2de05a9_Image_30.jpeg,liked,3.602308302,,,,,,,,,,,,,,
,,,,,,,space,0.676,NAN,,NAN,,0,55,55,55,1,56,Riley,Acc,Participant_Images/64010a38650fe3a1a2de05a9/64010a38650fe3a1a2de05a9_Images/64010a38650fe3a1a2de05a9_Image_29.jpeg,did not like,4.106391878,,,,,,,,,,,,,,
,,,,,,,space,0.7726,NAN,,NAN,,0,56,56,56,1,57,Riley,Acc,Participant_Images/64010a38650fe3a1a2de05a9/64010a38650fe3a1a2de05a9_Images/64010a38650fe3a1a2de05a9_Image_7.jpeg,did not like,3.799433026,,,,,,,,,,,,,,
,,,,,,,space,1.2955,NAN,,NAN,,0,57,57,57,1,58,Riley,Acc,Participant_Images/64010a38650fe3a1a2de05a9/64010a38650fe3a1a2de05a9_Images/64010a38650fe3a1a2de05a9_Image_6.jpeg,liked,5.246980764,,,,,,,,,,,,,,
,,,,,,,space,0.7616,NAN,,NAN,,0,58,58,58,1,59,Riley,Acc,Participant_Images/64010a38650fe3a1a2de05a9/64010a38650fe3a1a2de05a9_Images/64010a38650fe3a1a2de05a9_Image_20.jpeg,liked,3.30081769,,,,,,,,,,,,,,
,,,,,,,,,,,,,,,,,,,,,,,,c,0,space,1.3691,0,0,0,0,1,1.3506,,,,
,,,,,,,,,5,,9,,0,59,59,59,1,60,Riley,Acc,Participant_Images/64010a38650fe3a1a2de05a9/64010a38650fe3a1a2de05a9_Images/64010a38650fe3a1a2de05a9_Image_27.jpeg,did not like,1.661473164,,,,,,,,,,,,,,
,,,,,space,1.7729,space,0.9305,NAN,,NAN,,0,60,60,60,1,61,Sam,Acc,Participant_Images/64010a38650fe3a1a2de05a9/64010a38650fe3a1a2de05a9_Images/64010a38650fe3a1a2de05a9_Image_10.jpeg,liked,3.613205605,,,,,,,,,,,,,,
,,,,,,,space,0.2878,NAN,,NAN,,0,61,61,61,1,62,Sam,Acc,Participant_Images/64010a38650fe3a1a2de05a9/64010a38650fe3a1a2de05a9_Images/64010a38650fe3a1a2de05a9_Image_3.jpeg,liked,4.988446431,,,,,,,,,,,,,,
,,,,,,,space,2.0982,NAN,,NAN,,0,62,62,62,1,63,Sam,Acc,Participant_Images/64010a38650fe3a1a2de05a9/64010a38650fe3a1a2de05a9_Images/64010a38650fe3a1a2de05a9_Image_18.jpeg,did not like,3.470791822,,,,,,,,,,,,,,
,,,,,,,space,0.877,NAN,,NAN,,0,63,63,63,1,64,Sam,Acc,Participant_Images/64010a38650fe3a1a2de05a9/64010a38650fe3a1a2de05a9_Images/64010a38650fe3a1a2de05a9_Image_29.jpeg,liked,3.820572462,,,,,,,,,,,,,,
,,,,,,,,,,,,,,,,,,,,,,,,c,0,space,0.6397,0,0,0,0,1,1.1021,,,,
,,,,,,,,,NAN,,NAN,,0,64,64,64,1,65,Sam,Acc,Participant_Images/64010a38650fe3a1a2de05a9/64010a38650fe3a1a2de05a9_Images/64010a38650fe3a1a2de05a9_Image_11.jpeg,liked,2.455989137,,,,,,,,,,,,,,
,,,,,,,space,3.785,NAN,,NAN,,0,65,65,65,1,66,Sam,Acc,Participant_Images/64010a38650fe3a1a2de05a9/64010a38650fe3a1a2de05a9_Images/64010a38650fe3a1a2de05a9_Image_30.jpeg,did not like,3.79605092,,,,,,,,,,,,,,
,,,,,,,space,0.9823,NAN,,NAN,,0,66,66,66,1,67,Sam,Acc,Participant_Images/64010a38650fe3a1a2de05a9/64010a38650fe3a1a2de05a9_Images/64010a38650fe3a1a2de05a9_Image_15.jpeg,liked,3.562416326,,,,,,,,,,,,,,
,,,,,,,space,0.7391,NAN,,NAN,,0,67,67,67,1,68,Sam,Acc,Participant_Images/64010a38650fe3a1a2de05a9/64010a38650fe3a1a2de05a9_Images/64010a38650fe3a1a2de05a9_Image_9.jpeg,liked,2.843822497,,,,,,,,,,,,,,
,,,,,,,space,0.3755,NAN,,NAN,,0,68,68,68,1,69,Sam,Acc,Participant_Images/64010a38650fe3a1a2de05a9/64010a38650fe3a1a2de05a9_Images/64010a38650fe3a1a2de05a9_Image_26.jpeg,did not like,3.546495948,,,,,,,,,,,,,,
,,,,,,,,,,,,,,,,,,,,,,,,c,0,space,1.0058,0,0,0,0,1,0.9229,,,,
,,,,,,,,,NAN,,NAN,,0,69,69,69,1,70,Sam,Acc,Participant_Images/64010a38650fe3a1a2de05a9/64010a38650fe3a1a2de05a9_Images/64010a38650fe3a1a2de05a9_Image_24.jpeg,liked,1.672012706,,,,,,,,,,,,,,
,,,,,,,space,0.484,NAN,,NAN,,0,70,70,70,1,71,Sam,Acc,Participant_Images/64010a38650fe3a1a2de05a9/64010a38650fe3a1a2de05a9_Images/64010a38650fe3a1a2de05a9_Image_6.jpeg,liked,4.942172136,,,,,,,,,,,,,,
,,,,,,,space,0.5851,NAN,,NAN,,0,71,71,71,1,72,Sam,Acc,Participant_Images/64010a38650fe3a1a2de05a9/64010a38650fe3a1a2de05a9_Images/64010a38650fe3a1a2de05a9_Image_5.jpeg,liked,2.50187214,,,,,,,,,,,,,,
,,,,,,,space,0.5246,NAN,,NAN,,0,72,72,72,1,73,Sam,Acc,Participant_Images/64010a38650fe3a1a2de05a9/64010a38650fe3a1a2de05a9_Images/64010a38650fe3a1a2de05a9_Image_1.jpeg,liked,2.071164779,,,,,,,,,,,,,,
,,,,,,,space,0.4441,NAN,,NAN,,0,73,73,73,1,74,Sam,Acc,Participant_Images/64010a38650fe3a1a2de05a9/64010a38650fe3a1a2de05a9_Images/64010a38650fe3a1a2de05a9_Image_16.jpeg,liked,5.336503566,,,,,,,,,,,,,,
,,,,,,,,,,,,,,,,,,,,,,,,c,0,space,0.4823,0,0,0,0,1,1.4147,,,,
,,,,,,,,,NAN,,NAN,,0,74,74,74,1,75,Sam,Acc,Participant_Images/64010a38650fe3a1a2de05a9/64010a38650fe3a1a2de05a9_Images/64010a38650fe3a1a2de05a9_Image_19.jpeg,liked,2.642157193,,,,,,,,,,,,,,
,,,,,,,space,0.8114,NAN,,NAN,,0,75,75,75,1,76,Sam,Acc,Participant_Images/64010a38650fe3a1a2de05a9/64010a38650fe3a1a2de05a9_Images/64010a38650fe3a1a2de05a9_Image_28.jpeg,did not like,4.456234322,,,,,,,,,,,,,,
,,,,,,,space,0.4453,NAN,,NAN,,0,76,76,76,1,77,Sam,Acc,Participant_Images/64010a38650fe3a1a2de05a9/64010a38650fe3a1a2de05a9_Images/64010a38650fe3a1a2de05a9_Image_21.jpeg,liked,4.438512181,,,,,,,,,,,,,,
,,,,,,,space,0.6395,NAN,,NAN,,0,77,77,77,1,78,Sam,Acc,Participant_Images/64010a38650fe3a1a2de05a9/64010a38650fe3a1a2de05a9_Images/64010a38650fe3a1a2de05a9_Image_4.jpeg,liked,2.682944783,,,,,,,,,,,,,,
,,,,,,,space,0.5726,NAN,,NAN,,0,78,78,78,1,79,Sam,Acc,Participant_Images/64010a38650fe3a1a2de05a9/64010a38650fe3a1a2de05a9_Images/64010a38650fe3a1a2de05a9_Image_25.jpeg,liked,4.51984296,,,,,,,,,,,,,,
,,,,,,,,,,,,,,,,,,,,,,,,c,0,space,1.5444,0,0,0,0,1,1.3831,,,,
,,,,,,,,,NAN,,NAN,,0,79,79,79,1,80,Sam,Acc,Participant_Images/64010a38650fe3a1a2de05a9/64010a38650fe3a1a2de05a9_Images/64010a38650fe3a1a2de05a9_Image_20.jpeg,liked,3.195382774,,,,,,,,,,,,,,
,,,,,,,space,0.5362,NAN,,NAN,,0,80,80,80,1,81,Sam,Acc,Participant_Images/64010a38650fe3a1a2de05a9/64010a38650fe3a1a2de05a9_Images/64010a38650fe3a1a2de05a9_Image_13.jpeg,liked,1.779333479,,,,,,,,,,,,,,
,,,,,,,space,0.6893,NAN,,NAN,,0,81,81,81,1,82,Sam,Acc,Participant_Images/64010a38650fe3a1a2de05a9/64010a38650fe3a1a2de05a9_Images/64010a38650fe3a1a2de05a9_Image_23.jpeg,liked,4.312468682,,,,,,,,,,,,,,
,,,,,,,space,0.57,NAN,,NAN,,0,82,82,82,1,83,Sam,Acc,Participant_Images/64010a38650fe3a1a2de05a9/64010a38650fe3a1a2de05a9_Images/64010a38650fe3a1a2de05a9_Image_22.jpeg,did not like,4.940433059,,,,,,,,,,,,,,
,,,,,,,space,0.5304,NAN,,NAN,,0,83,83,83,1,84,Sam,Acc,Participant_Images/64010a38650fe3a1a2de05a9/64010a38650fe3a1a2de05a9_Images/64010a38650fe3a1a2de05a9_Image_14.jpeg,did not like,2.7105123,,,,,,,,,,,,,,
,,,,,,,,,,,,,,,,,,,,,,,,s,1,space,0.5792,0,0,0,0,1,1.6293,h,0.6814,,
,,,,,,,,,NAN,,NAN,,0,84,84,84,1,85,Sam,Acc,Participant_Images/64010a38650fe3a1a2de05a9/64010a38650fe3a1a2de05a9_Images/64010a38650fe3a1a2de05a9_Image_2.jpeg,liked,3.602308302,,,,,,,,,,,,,,
,,,,,,,space,0.4742,NAN,,NAN,,0,85,85,85,1,86,Sam,Acc,Participant_Images/64010a38650fe3a1a2de05a9/64010a38650fe3a1a2de05a9_Images/64010a38650fe3a1a2de05a9_Image_27.jpeg,did not like,4.106391878,,,,,,,,,,,,,,
,,,,,,,space,0.436,NAN,,NAN,,0,86,86,86,1,87,Sam,Acc,Participant_Images/64010a38650fe3a1a2de05a9/64010a38650fe3a1a2de05a9_Images/64010a38650fe3a1a2de05a9_Image_8.jpeg,did not like,3.799433026,,,,,,,,,,,,,,
,,,,,,,space,1.0988,NAN,,NAN,,0,87,87,87,1,88,Sam,Acc,Participant_Images/64010a38650fe3a1a2de05a9/64010a38650fe3a1a2de05a9_Images/64010a38650fe3a1a2de05a9_Image_7.jpeg,liked,5.246980764,,,,,,,,,,,,,,
,,,,,,,space,0.6149,NAN,,NAN,,0,88,88,88,1,89,Sam,Acc,Participant_Images/64010a38650fe3a1a2de05a9/64010a38650fe3a1a2de05a9_Images/64010a38650fe3a1a2de05a9_Image_12.jpeg,liked,3.30081769,,,,,,,,,,,,,,
,,,,,,,,,,,,,,,,,,,,,,,,c,0,space,0.472,0,0,0,0,1,1.2071,,,,
,,,,,,,,,5,,9,,0,89,89,89,1,90,Sam,Acc,Participant_Images/64010a38650fe3a1a2de05a9/64010a38650fe3a1a2de05a9_Images/64010a38650fe3a1a2de05a9_Image_17.jpeg,did not like,1.661473164,,,,,,,,,,,,,,
,,,,,space,1.5901,space,0.5764,NAN,,NAN,,0,90,90,90,1,91,Alex,Rej,Participant_Images/64010a38650fe3a1a2de05a9/64010a38650fe3a1a2de05a9_Images/64010a38650fe3a1a2de05a9_Image_5.jpeg,did not like,3.613205605,,,,,,,,,,,,,,
,,,,,,,space,0.5297,NAN,,NAN,,0,91,91,91,1,92,Alex,Rej,Participant_Images/64010a38650fe3a1a2de05a9/64010a38650fe3a1a2de05a9_Images/64010a38650fe3a1a2de05a9_Image_22.jpeg,did not like,4.988446431,,,,,,,,,,,,,,
,,,,,,,space,0.5411,NAN,,NAN,,0,92,92,92,1,93,Alex,Rej,Participant_Images/64010a38650fe3a1a2de05a9/64010a38650fe3a1a2de05a9_Images/64010a38650fe3a1a2de05a9_Image_27.jpeg,liked,3.470791822,,,,,,,,,,,,,,
,,,,,,,space,0.774,NAN,,NAN,,0,93,93,93,1,94,Alex,Rej,Participant_Images/64010a38650fe3a1a2de05a9/64010a38650fe3a1a2de05a9_Images/64010a38650fe3a1a2de05a9_Image_11.jpeg,did not like,3.820572462,,,,,,,,,,,,,,
,,,,,,,,,,,,,,,,,,,,,,,,c,0,space,0.4968,0,0,0,0,1,1.1808,,,,
,,,,,,,,,NAN,,NAN,,0,94,94,94,1,95,Alex,Rej,Participant_Images/64010a38650fe3a1a2de05a9/64010a38650fe3a1a2de05a9_Images/64010a38650fe3a1a2de05a9_Image_29.jpeg,did not like,2.455989137,,,,,,,,,,,,,,
,,,,,,,space,0.681,NAN,,NAN,,0,95,95,95,1,96,Alex,Rej,Participant_Images/64010a38650fe3a1a2de05a9/64010a38650fe3a1a2de05a9_Images/64010a38650fe3a1a2de05a9_Image_16.jpeg,liked,3.79605092,,,,,,,,,,,,,,
,,,,,,,space,0.4084,NAN,,NAN,,0,96,96,96,1,97,Alex,Rej,Participant_Images/64010a38650fe3a1a2de05a9/64010a38650fe3a1a2de05a9_Images/64010a38650fe3a1a2de05a9_Image_12.jpeg,did not like,3.562416326,,,,,,,,,,,,,,
,,,,,,,space,0.7909,NAN,,NAN,,0,97,97,97,1,98,Alex,Rej,Participant_Images/64010a38650fe3a1a2de05a9/64010a38650fe3a1a2de05a9_Images/64010a38650fe3a1a2de05a9_Image_19.jpeg,liked,2.843822497,,,,,,,,,,,,,,
,,,,,,,space,1.905,NAN,,NAN,,0,98,98,98,1,99,Alex,Rej,Participant_Images/64010a38650fe3a1a2de05a9/64010a38650fe3a1a2de05a9_Images/64010a38650fe3a1a2de05a9_Image_2.jpeg,did not like,3.546495948,,,,,,,,,,,,,,
,,,,,,,,,,,,,,,,,,,,,,,,c,0,space,1.0168,0,0,0,0,1,1.1801,,,,
,,,,,,,,,NAN,,NAN,,0,99,99,99,1,100,Alex,Rej,Participant_Images/64010a38650fe3a1a2de05a9/64010a38650fe3a1a2de05a9_Images/64010a38650fe3a1a2de05a9_Image_4.jpeg,did not like,1.672012706,,,,,,,,,,,,,,
,,,,,,,space,0.6254,NAN,,NAN,,0,100,100,100,1,101,Alex,Rej,Participant_Images/64010a38650fe3a1a2de05a9/64010a38650fe3a1a2de05a9_Images/64010a38650fe3a1a2de05a9_Image_30.jpeg,liked,4.942172136,,,,,,,,,,,,,,
,,,,,,,space,6.5368,NAN,,NAN,,0,101,101,101,1,102,Alex,Rej,Participant_Images/64010a38650fe3a1a2de05a9/64010a38650fe3a1a2de05a9_Images/64010a38650fe3a1a2de05a9_Image_13.jpeg,did not like,2.50187214,,,,,,,,,,,,,,
,,,,,,,space,0.3863,NAN,,NAN,,0,102,102,102,1,103,Alex,Rej,Participant_Images/64010a38650fe3a1a2de05a9/64010a38650fe3a1a2de05a9_Images/64010a38650fe3a1a2de05a9_Image_28.jpeg,did not like,2.071164779,,,,,,,,,,,,,,
,,,,,,,space,0.5843,NAN,,NAN,,0,103,103,103,1,104,Alex,Rej,Participant_Images/64010a38650fe3a1a2de05a9/64010a38650fe3a1a2de05a9_Images/64010a38650fe3a1a2de05a9_Image_6.jpeg,liked,5.336503566,,,,,,,,,,,,,,
,,,,,,,,,,,,,,,,,,,,,,,,c,0,space,0.6324,0,0,0,0,1,1.1125,,,,
,,,,,,,,,NAN,,NAN,,0,104,104,104,1,105,Alex,Rej,Participant_Images/64010a38650fe3a1a2de05a9/64010a38650fe3a1a2de05a9_Images/64010a38650fe3a1a2de05a9_Image_15.jpeg,liked,2.642157193,,,,,,,,,,,,,,
,,,,,,,space,0.5846,NAN,,NAN,,0,105,105,105,1,106,Alex,Rej,Participant_Images/64010a38650fe3a1a2de05a9/64010a38650fe3a1a2de05a9_Images/64010a38650fe3a1a2de05a9_Image_17.jpeg,did not like,4.456234322,,,,,,,,,,,,,,
,,,,,,,space,0.6338,NAN,,NAN,,0,106,106,106,1,107,Alex,Rej,Participant_Images/64010a38650fe3a1a2de05a9/64010a38650fe3a1a2de05a9_Images/64010a38650fe3a1a2de05a9_Image_24.jpeg,did not like,4.438512181,,,,,,,,,,,,,,
,,,,,,,space,0.8967,NAN,,NAN,,0,107,107,107,1,108,Alex,Rej,Participant_Images/64010a38650fe3a1a2de05a9/64010a38650fe3a1a2de05a9_Images/64010a38650fe3a1a2de05a9_Image_10.jpeg,liked,2.682944783,,,,,,,,,,,,,,
,,,,,,,space,0.3768,NAN,,NAN,,0,108,108,108,1,109,Alex,Rej,Participant_Images/64010a38650fe3a1a2de05a9/64010a38650fe3a1a2de05a9_Images/64010a38650fe3a1a2de05a9_Image_25.jpeg,did not like,4.51984296,,,,,,,,,,,,,,
,,,,,,,,,,,,,,,,,,,,,,,,c,0,space,0.8642,0,0,0,0,1,1.1946,,,,
,,,,,,,,,NAN,,NAN,,0,109,109,109,1,110,Alex,Rej,Participant_Images/64010a38650fe3a1a2de05a9/64010a38650fe3a1a2de05a9_Images/64010a38650fe3a1a2de05a9_Image_8.jpeg,did not like,3.195382774,,,,,,,,,,,,,,
,,,,,,,space,0.7204,NAN,,NAN,,0,110,110,110,1,111,Alex,Rej,Participant_Images/64010a38650fe3a1a2de05a9/64010a38650fe3a1a2de05a9_Images/64010a38650fe3a1a2de05a9_Image_14.jpeg,liked,1.779333479,,,,,,,,,,,,,,
,,,,,,,space,0.5169,NAN,,NAN,,0,111,111,111,1,112,Alex,Rej,Participant_Images/64010a38650fe3a1a2de05a9/64010a38650fe3a1a2de05a9_Images/64010a38650fe3a1a2de05a9_Image_18.jpeg,liked,4.312468682,,,,,,,,,,,,,,
,,,,,,,space,0.84,NAN,,NAN,,0,112,112,112,1,113,Alex,Rej,Participant_Images/64010a38650fe3a1a2de05a9/64010a38650fe3a1a2de05a9_Images/64010a38650fe3a1a2de05a9_Image_9.jpeg,did not like,4.940433059,,,,,,,,,,,,,,
,,,,,,,space,0.5963,NAN,,NAN,,0,113,113,113,1,114,Alex,Rej,Participant_Images/64010a38650fe3a1a2de05a9/64010a38650fe3a1a2de05a9_Images/64010a38650fe3a1a2de05a9_Image_3.jpeg,did not like,2.7105123,,,,,,,,,,,,,,
,,,,,,,,,,,,,,,,,,,,,,,,c,0,space,0.78,0,0,0,0,1,1.1366,,,,
,,,,,,,,,NAN,,NAN,,0,114,114,114,1,115,Alex,Rej,Participant_Images/64010a38650fe3a1a2de05a9/64010a38650fe3a1a2de05a9_Images/64010a38650fe3a1a2de05a9_Image_26.jpeg,did not like,3.602308302,,,,,,,,,,,,,,
,,,,,,,space,0.8004,NAN,,NAN,,0,115,115,115,1,116,Alex,Rej,Participant_Images/64010a38650fe3a1a2de05a9/64010a38650fe3a1a2de05a9_Images/64010a38650fe3a1a2de05a9_Image_20.jpeg,did not like,4.106391878,,,,,,,,,,,,,,
,,,,,,,space,0.5568,NAN,,NAN,,0,116,116,116,1,117,Alex,Rej,Participant_Images/64010a38650fe3a1a2de05a9/64010a38650fe3a1a2de05a9_Images/64010a38650fe3a1a2de05a9_Image_1.jpeg,did not like,3.799433026,,,,,,,,,,,,,,
,,,,,,,space,1.1105,NAN,,NAN,,0,117,117,117,1,118,Alex,Rej,Participant_Images/64010a38650fe3a1a2de05a9/64010a38650fe3a1a2de05a9_Images/64010a38650fe3a1a2de05a9_Image_21.jpeg,did not like,5.246980764,,,,,,,,,,,,,,
,,,,,,,space,0.7082,NAN,,NAN,,0,118,118,118,1,119,Alex,Rej,Participant_Images/64010a38650fe3a1a2de05a9/64010a38650fe3a1a2de05a9_Images/64010a38650fe3a1a2de05a9_Image_7.jpeg,did not like,3.30081769,,,,,,,,,,,,,,
,,,,,,,,,,,,,,,,,,,,,,,,c,0,space,0.4449,0,0,0,0,1,0.787,,,,
,,,,,,,,,5,,9,,0,119,119,119,1,120,Alex,Rej,Participant_Images/64010a38650fe3a1a2de05a9/64010a38650fe3a1a2de05a9_Images/64010a38650fe3a1a2de05a9_Image_23.jpeg,did not like,1.661473164,,,,,,,,,,,,,,
,,,,,space,2.3221,space,0.577,NAN,,NAN,,0,120,120,120,1,121,Taylor,Neutral,Participant_Images/64010a38650fe3a1a2de05a9/64010a38650fe3a1a2de05a9_Images/64010a38650fe3a1a2de05a9_Image_3.jpeg,liked,3.613205605,,,,,,,,,,,,,,
,,,,,,,space,0.737,NAN,,NAN,,0,121,121,121,1,122,Taylor,Neutral,Participant_Images/64010a38650fe3a1a2de05a9/64010a38650fe3a1a2de05a9_Images/64010a38650fe3a1a2de05a9_Image_11.jpeg,liked,4.988446431,,,,,,,,,,,,,,
,,,,,,,space,0.5466,NAN,,NAN,,0,122,122,122,1,123,Taylor,Neutral,Participant_Images/64010a38650fe3a1a2de05a9/64010a38650fe3a1a2de05a9_Images/64010a38650fe3a1a2de05a9_Image_12.jpeg,did not like,3.470791822,,,,,,,,,,,,,,
,,,,,,,space,0.6016,NAN,,NAN,,0,123,123,123,1,124,Taylor,Neutral,Participant_Images/64010a38650fe3a1a2de05a9/64010a38650fe3a1a2de05a9_Images/64010a38650fe3a1a2de05a9_Image_25.jpeg,liked,3.820572462,,,,,,,,,,,,,,
,,,,,,,,,,,,,,,,,,,,,,,,c,0,space,0.7466,0,0,0,0,1,1.0075,,,,
,,,,,,,,,NAN,,NAN,,0,124,124,124,1,125,Taylor,Neutral,Participant_Images/64010a38650fe3a1a2de05a9/64010a38650fe3a1a2de05a9_Images/64010a38650fe3a1a2de05a9_Image_22.jpeg,did not like,2.455989137,,,,,,,,,,,,,,
,,,,,,,space,1.0905,NAN,,NAN,,0,125,125,125,1,126,Taylor,Neutral,Participant_Images/64010a38650fe3a1a2de05a9/64010a38650fe3a1a2de05a9_Images/64010a38650fe3a1a2de05a9_Image_13.jpeg,liked,3.79605092,,,,,,,,,,,,,,
,,,,,,,space,0.4655,NAN,,NAN,,0,126,126,126,1,127,Taylor,Neutral,Participant_Images/64010a38650fe3a1a2de05a9/64010a38650fe3a1a2de05a9_Images/64010a38650fe3a1a2de05a9_Image_8.jpeg,did not like,3.562416326,,,,,,,,,,,,,,
,,,,,,,space,0.5567,NAN,,NAN,,0,127,127,127,1,128,Taylor,Neutral,Participant_Images/64010a38650fe3a1a2de05a9/64010a38650fe3a1a2de05a9_Images/64010a38650fe3a1a2de05a9_Image_23.jpeg,liked,2.843822497,,,,,,,,,,,,,,
,,,,,,,space,0.528,NAN,,NAN,,0,128,128,128,1,129,Taylor,Neutral,Participant_Images/64010a38650fe3a1a2de05a9/64010a38650fe3a1a2de05a9_Images/64010a38650fe3a1a2de05a9_Image_30.jpeg,did not like,3.546495948,,,,,,,,,,,,,,
,,,,,,,,,,,,,,,,,,,,,,,,c,0,space,0.6185,0,0,0,0,1,1.1745,,,,
,,,,,,,,,NAN,,NAN,,0,129,129,129,1,130,Taylor,Neutral,Participant_Images/64010a38650fe3a1a2de05a9/64010a38650fe3a1a2de05a9_Images/64010a38650fe3a1a2de05a9_Image_21.jpeg,did not like,1.672012706,,,,,,,,,,,,,,
,,,,,,,space,0.8004,NAN,,NAN,,0,130,130,130,1,131,Taylor,Neutral,Participant_Images/64010a38650fe3a1a2de05a9/64010a38650fe3a1a2de05a9_Images/64010a38650fe3a1a2de05a9_Image_27.jpeg,liked,4.942172136,,,,,,,,,,,,,,
,,,,,,,space,0.5665,NAN,,NAN,,0,131,131,131,1,132,Taylor,Neutral,Participant_Images/64010a38650fe3a1a2de05a9/64010a38650fe3a1a2de05a9_Images/64010a38650fe3a1a2de05a9_Image_20.jpeg,did not like,2.50187214,,,,,,,,,,,,,,
,,,,,,,space,1.5746,NAN,,NAN,,0,132,132,132,1,133,Taylor,Neutral,Participant_Images/64010a38650fe3a1a2de05a9/64010a38650fe3a1a2de05a9_Images/64010a38650fe3a1a2de05a9_Image_24.jpeg,liked,2.071164779,,,,,,,,,,,,,,
,,,,,,,space,0.7219,NAN,,NAN,,0,133,133,133,1,134,Taylor,Neutral,Participant_Images/64010a38650fe3a1a2de05a9/64010a38650fe3a1a2de05a9_Images/64010a38650fe3a1a2de05a9_Image_26.jpeg,liked,5.336503566,,,,,,,,,,,,,,
,,,,,,,,,,,,,,,,,,,,,,,,c,0,space,1.7632,0,0,0,0,1,1.0409,,,,
,,,,,,,,,NAN,,NAN,,0,134,134,134,1,135,Taylor,Neutral,Participant_Images/64010a38650fe3a1a2de05a9/64010a38650fe3a1a2de05a9_Images/64010a38650fe3a1a2de05a9_Image_2.jpeg,did not like,2.642157193,,,,,,,,,,,,,,
,,,,,,,space,0.8151,NAN,,NAN,,0,135,135,135,1,136,Taylor,Neutral,Participant_Images/64010a38650fe3a1a2de05a9/64010a38650fe3a1a2de05a9_Images/64010a38650fe3a1a2de05a9_Image_14.jpeg,liked,4.456234322,,,,,,,,,,,,,,
,,,,,,,space,0.8824,NAN,,NAN,,0,136,136,136,1,137,Taylor,Neutral,Participant_Images/64010a38650fe3a1a2de05a9/64010a38650fe3a1a2de05a9_Images/64010a38650fe3a1a2de05a9_Image_18.jpeg,did not like,4.438512181,,,,,,,,,,,,,,
,,,,,,,space,0.7635,NAN,,NAN,,0,137,137,137,1,138,Taylor,Neutral,Participant_Images/64010a38650fe3a1a2de05a9/64010a38650fe3a1a2de05a9_Images/64010a38650fe3a1a2de05a9_Image_17.jpeg,liked,2.682944783,,,,,,,,,,,,,,
,,,,,,,space,0.6243,NAN,,NAN,,0,138,138,138,1,139,Taylor,Neutral,Participant_Images/64010a38650fe3a1a2de05a9/64010a38650fe3a1a2de05a9_Images/64010a38650fe3a1a2de05a9_Image_29.jpeg,did not like,4.51984296,,,,,,,,,,,,,,
,,,,,,,,,,,,,,,,,,,,,,,,c,0,space,1.2637,0,0,0,0,1,0.7416,,,,
,,,,,,,,,NAN,,NAN,,0,139,139,139,1,140,Taylor,Neutral,Participant_Images/64010a38650fe3a1a2de05a9/64010a38650fe3a1a2de05a9_Images/64010a38650fe3a1a2de05a9_Image_28.jpeg,did not like,3.195382774,,,,,,,,,,,,,,
,,,,,,,space,0.9966,NAN,,NAN,,0,140,140,140,1,141,Taylor,Neutral,Participant_Images/64010a38650fe3a1a2de05a9/64010a38650fe3a1a2de05a9_Images/64010a38650fe3a1a2de05a9_Image_10.jpeg,liked,1.779333479,,,,,,,,,,,,,,
,,,,,,,space,1.1979,NAN,,NAN,,0,141,141,141,1,142,Taylor,Neutral,Participant_Images/64010a38650fe3a1a2de05a9/64010a38650fe3a1a2de05a9_Images/64010a38650fe3a1a2de05a9_Image_1.jpeg,liked,4.312468682,,,,,,,,,,,,,,
,,,,,,,space,0.626,NAN,,NAN,,0,142,142,142,1,143,Taylor,Neutral,Participant_Images/64010a38650fe3a1a2de05a9/64010a38650fe3a1a2de05a9_Images/64010a38650fe3a1a2de05a9_Image_19.jpeg,liked,4.940433059,,,,,,,,,,,,,,
,,,,,,,space,2.877,NAN,,NAN,,0,143,143,143,1,144,Taylor,Neutral,Participant_Images/64010a38650fe3a1a2de05a9/64010a38650fe3a1a2de05a9_Images/64010a38650fe3a1a2de05a9_Image_6.jpeg,did not like,2.7105123,,,,,,,,,,,,,,
,,,,,,,,,,,,,,,,,,,,,,,,c,0,space,0.5818,0,0,0,0,1,1.4123,,,,
,,,,,,,,,NAN,,NAN,,0,144,144,144,1,145,Taylor,Neutral,Participant_Images/64010a38650fe3a1a2de05a9/64010a38650fe3a1a2de05a9_Images/64010a38650fe3a1a2de05a9_Image_7.jpeg,did not like,3.602308302,,,,,,,,,,,,,,
,,,,,,,space,0.4511,NAN,,NAN,,0,145,145,145,1,146,Taylor,Neutral,Participant_Images/64010a38650fe3a1a2de05a9/64010a38650fe3a1a2de05a9_Images/64010a38650fe3a1a2de05a9_Image_4.jpeg,liked,4.106391878,,,,,,,,,,,,,,
,,,,,,,space,0.4446,NAN,,NAN,,0,146,146,146,1,147,Taylor,Neutral,Participant_Images/64010a38650fe3a1a2de05a9/64010a38650fe3a1a2de05a9_Images/64010a38650fe3a1a2de05a9_Image_5.jpeg,did not like,3.799433026,,,,,,,,,,,,,,
,,,,,,,space,1.4898,NAN,,NAN,,0,147,147,147,1,148,Taylor,Neutral,Participant_Images/64010a38650fe3a1a2de05a9/64010a38650fe3a1a2de05a9_Images/64010a38650fe3a1a2de05a9_Image_9.jpeg,did not like,5.246980764,,,,,,,,,,,,,,
,,,,,,,space,1.2577,NAN,,NAN,,0,148,148,148,1,149,Taylor,Neutral,Participant_Images/64010a38650fe3a1a2de05a9/64010a38650fe3a1a2de05a9_Images/64010a38650fe3a1a2de05a9_Image_16.jpeg,did not like,3.30081769,,,,,,,,,,,,,,
,,,,,,,,,,,,,,,,,,,,,,,,c,0,space,0.8209,0,0,0,0,1,1.6383,,,,
,,,,,,,,,5,,9,,0,149,149,149,1,150,Taylor,Neutral,Participant_Images/64010a38650fe3a1a2de05a9/64010a38650fe3a1a2de05a9_Images/64010a38650fe3a1a2de05a9_Image_15.jpeg,liked,1.661473164,,,,,,,,,,,,,,
,,,,,,,,,,,,,,,,,,,,,,,,,,,,,,,,,,,,space,3.6491
